,attitude.roll,attitude.pitch,attitude.yaw,gravity.x,gravity.y,gravity.z,rotationRate.x,rotationRate.y,rotationRate.z,userAcceleration.x,userAcceleration.y,userAcceleration.z
0,-1.2247895979797279,-0.00034004830695492233,0.8098432795263933,-0.9407344460487366,0.00034004831104539335,-0.33914390206336975,0.0012782840058207512,-0.5343194603919983,0.002754990942776203,0.011184334754943848,0.007823377847671509,0.03178611397743225
1,0.028959117401719976,0.45596678190827683,1.0011329340750226,0.025996895506978035,-0.44033053517341614,-0.8974592685699463,0.9344495534896851,-0.36396145820617676,1.3656949996948242,0.07600811123847961,0.14933016896247864,0.04499650001525879
2,-0.08692431155786491,0.4742458927904766,1.1513690691500598,-0.07723376899957657,-0.4566676914691925,-0.886278510093689,-0.07197257876396179,0.05932248383760452,1.2470670938491821,-0.05328992009162903,0.23570516705513,-0.19762957096099854
3,-0.11929180957321692,0.44996614215629716,1.2626084128299166,-0.10716313123703003,-0.4349350333213806,-0.8940623998641968,-0.0233054980635643,0.08278582990169525,0.8943951725959778,0.01809757947921753,0.204802006483078,-0.04174387454986572
4,-0.18682448487280784,0.4497775197800298,1.3524440553023016,-0.1672666370868683,-0.43476518988609314,-0.8848735094070435,0.021549062803387642,-0.2875068783760071,0.6047372817993164,-0.06376668810844421,0.14057573676109314,-0.020460963249206543
5,-0.2564626552535326,0.43107138025083425,1.3651838019682088,-0.23045527935028076,-0.41784441471099854,-0.8788039684295654,-0.6766533851623535,-0.6077135801315308,-0.26296278834342957,0.04895198345184326,0.06847918033599854,0.13405299186706543
6,-0.24155803250914737,0.36403023868766055,1.3686398797482104,-0.2235397845506668,-0.3560432493686676,-0.9073385000228882,-0.7799565196037292,0.7802749872207642,-0.013000525534152985,-0.1533980816602707,-0.0396781861782074,-0.07311499118804932
7,-0.25635601420668913,0.3239206395030756,1.3378042843206253,-0.24037104845046997,-0.31828573346138,-0.9170147180557251,-0.4421548843383789,-0.9627220034599304,-0.5779100060462952,-0.20802374184131622,-0.038830965757369995,-0.021980643272399902
8,-0.31729808294516865,0.31069706697537613,1.2285713615258054,-0.2970622777938843,-0.3057224154472351,-0.9045926332473755,-0.5809787511825562,-1.1306662559509277,-1.3281309604644775,-0.23142588138580322,0.026822268962860107,-0.09662806987762451
9,-0.356193009073532,0.32269001818077,1.059508053688707,-0.33071041107177734,-0.31711888313293457,-0.8888567090034485,-0.5795385241508484,0.036173611879348755,-1.4852105379104614,-0.06887149810791016,0.21506810188293457,0.08551198244094849
10,-0.34627711876373424,0.3113730548335711,0.9123029106024064,-0.32307788729667664,-0.306365966796875,-0.8954108357429504,-0.3309899866580963,-1.1104711294174194,-1.41726553440094,-0.05950570106506348,0.22900390625,0.04024726152420044
11,-0.45674323865884064,0.3204997638265188,0.7064762324385657,-0.41856956481933594,-0.3150409162044525,-0.851791501045227,-0.6725371479988098,-1.6668447256088257,-1.588270902633667,0.08183860778808594,0.348991721868515,-0.07672107219696045
12,-0.4866789254609674,0.2850123797874774,0.535142819922223,-0.4488254189491272,-0.2811693251132965,-0.848233163356781,-1.238548994064331,-0.6237935423851013,-1.0074987411499023,0.1391177475452423,0.1681932508945465,0.06712055206298828
13,-0.6682780118497251,0.28279747542189865,0.44938140419783296,-0.5950224995613098,-0.2790430784225464,-0.7537128925323486,0.9611772298812866,-4.472501754760742,-0.15212443470954895,0.2946075201034546,0.23711198568344116,-0.09137982130050659
14,-1.4006517548252346,0.22601795171501982,0.8174305755746117,-0.9604940414428711,-0.22409853339195251,-0.16501832008361816,5.562467098236084,-6.483394145965576,4.534294605255127,0.4118490219116211,0.5049060583114624,-0.38585448265075684
15,-1.7959325846023324,-0.12987741039311734,1.0760500606096732,-0.9665539264678955,0.12951259315013885,0.221358984708786,-0.9485192894935608,1.6664565801620483,1.5675077438354492,-0.21017324924468994,0.10882966220378876,0.4260255992412567
16,-1.586345892193698,-0.13205727539857218,0.8167823770595021,-0.9911733865737915,0.13167378306388855,0.015413557179272175,-3.364975690841675,0.9224706292152405,0.7909151911735535,0.5174184441566467,0.5565280914306641,0.2517220973968506
17,-1.6627022697892417,-0.25104867359356137,0.5796468146166581,-0.9645644426345825,0.2484198957681656,0.0888996496796608,-1.7384555339813232,1.9035853147506714,0.6259075999259949,-0.9469956159591675,0.09967884421348572,-0.3205738067626953
18,-1.5775794021528096,-0.19212025348450887,0.5023208598085697,-0.9815790057182312,0.19094057381153107,0.00665822671726346,-0.07219992578029633,0.23841272294521332,-0.9840594530105591,-0.2180975079536438,-0.17598694562911987,-0.06596910953521729
19,-1.6211952418648146,-0.11718347049705642,0.5276419364648564,-0.9918808341026306,0.11691546440124512,0.05003208667039871,0.33055728673934937,-1.092384934425354,-0.3908783495426178,-0.028306543827056885,-0.10097001492977142,0.10281527042388916
20,-1.7030312596030897,-0.10032907777550402,0.5095840330720749,-0.9862849116325378,0.10016084462404251,0.1311868578195572,-0.6668288111686707,-1.1148122549057007,0.22294175624847412,0.004442811012268066,-0.08117890357971191,0.0904318243265152
21,-1.7623371962415453,-0.08901626784617343,0.456337981240527,-0.9778252243995667,0.08889875560998917,0.1896180808544159,-0.6511587500572205,0.5377492308616638,-0.39030730724334717,0.13259506225585938,-0.12417706847190857,0.05700981616973877
22,-1.6866393067848116,-0.0011813409472047507,0.40860485670940017,-0.9932971000671387,0.001181340659968555,0.11558398604393005,-0.3875807821750641,0.4267732501029968,-0.8739112615585327,0.18783140182495117,0.019189149141311646,0.02830636501312256
23,-1.6237353112963888,0.04979705200164876,0.38218637798506455,-0.9973611235618591,-0.04977647215127945,0.05284866318106651,-1.6282175779342651,2.6147854328155518,-0.04581654816865921,0.1320199966430664,0.24823229014873505,0.7088853120803833
24,-1.6372784208546498,0.004112958673364728,0.19007251151747206,-0.9977824687957764,-0.004112947266548872,0.06643257290124893,-2.2883589267730713,-0.16746124625205994,0.9530382752418518,-0.22624707221984863,0.19533608853816986,0.06549489498138428
25,-1.6915742251947075,-0.07392294161338703,0.028436302836324832,-0.9900040626525879,0.07385563105344772,0.12015542387962341,-1.0745025873184204,0.26905015110969543,0.5170696973800659,-0.03396749496459961,-0.15439152717590332,-0.3057328462600708
26,-1.6299590218698878,-0.08077937014165229,-0.12588693365408993,-0.9949951171875,0.08069154620170593,0.05893537029623985,-1.078093409538269,-0.09251970797777176,0.2786235809326172,0.06491100788116455,-0.09407351166009903,-0.14282822608947754
27,-1.6580381364407302,-0.08003821466374623,-0.21868272391940216,-0.9930076003074646,0.07995278388261795,0.08685224503278732,-0.8362811803817749,-0.024380596354603767,-0.3245698809623718,-0.03932565450668335,-0.03573282063007355,0.10044943541288376
28,-1.6429208348798423,-0.07896631443857938,-0.26912604528273726,-0.9942919611930847,0.07888427376747131,0.0718374252319336,-0.0030166739597916603,0.031153235584497452,0.23564282059669495,0.08531069755554199,0.024997562170028687,-0.04255581647157669
29,-1.6362418774551617,-0.0906196482600321,-0.2639483336174024,-0.9937648177146912,0.09049567580223083,0.06513050198554993,0.03915882483124733,0.07601306587457657,-0.08668496459722519,-0.03936195373535156,0.026722341775894165,0.08701490610837936
30,-1.6363842345417499,-0.07885844835387949,-0.24703028085181863,-0.9947488903999329,0.07877673953771591,0.06533721089363098,0.3958798050880432,-0.0316326878964901,-0.12021981179714203,0.06342864036560059,0.04428539425134659,-0.011153340339660645
31,-1.6443364011749373,-0.07032623579178733,-0.18239004992810798,-0.9948319792747498,0.07026828080415726,0.07329218834638596,0.7755605578422546,-0.18086691200733185,-0.20595867931842804,-0.014567434787750244,0.11457668989896774,0.10341978073120117
32,-1.6614484524173423,-0.04019252464325956,-0.12765442990482512,-0.9950898289680481,0.04018170386552811,0.09045492112636566,0.2461371123790741,0.2093997597694397,-0.4127678871154785,-0.10319221019744873,0.021494325250387192,0.10658193379640579
33,-1.676050222883433,-0.02000290839213585,-0.042255164245834136,-0.9942671060562134,0.020001575350761414,0.10503865778446198,1.0867130756378174,0.07302901893854141,-0.8628183007240295,0.019016742706298828,-0.058682605624198914,-0.04971025884151459
34,-1.6646602939679536,0.024833802785446387,0.05556183066691313,-0.9952910542488098,-0.024831250309944153,0.09369730204343796,1.0481176376342773,0.1632741093635559,-0.13151815533638,0.09064316749572754,-0.026728201657533646,-0.12162088602781296
35,-1.6521148583533631,0.04314987596323857,0.1609825010772404,-0.9957676529884338,-0.043136488646268845,0.08115331828594208,0.9858673214912415,0.08056440949440002,-0.42843377590179443,-0.05409801006317139,-0.07452403008937836,-0.050498493015766144
36,-1.647362593548452,0.06808071088058043,0.23809362112576293,-0.9947605133056641,-0.06802812963724136,0.0763142853975296,0.7242339849472046,0.17749516665935516,-0.16190023720264435,-0.026220381259918213,-0.035609565675258636,-0.03490196913480759
37,-1.641710579230673,0.08011685456784398,0.32107840449708797,-0.9942870736122131,-0.08003117144107819,0.07062755525112152,0.7502270340919495,0.17157843708992004,-0.20743149518966675,0.05126333236694336,-0.04515194147825241,0.006581909954547882
38,-1.6407622154130839,0.08478667060694295,0.3944911701508703,-0.9939699769020081,-0.08468512445688248,0.06965769082307816,0.7056405544281006,0.06460991501808167,-0.045410431921482086,-0.004031121730804443,0.007017895579338074,0.03625357151031494
39,-1.6393847933232373,0.08010885736135612,0.4590131529560728,-0.994449257850647,-0.08002319931983948,0.06831490993499756,0.5836352705955505,0.07399506866931915,0.060434553772211075,-0.0034755468368530273,-0.011636331677436829,-0.06561410427093506
40,-1.6322082344943758,0.07290193135223914,0.49135140107698305,-0.9954636096954346,-0.07283737510442734,0.06121028959751129,0.08929656445980072,0.0260753333568573,0.08059830218553543,0.02843797206878662,0.07598070055246353,0.1748737096786499
41,-1.6296103498929102,0.057520768261772354,0.4903515903623771,-0.9966198205947876,-0.057489052414894104,0.05868289992213249,-0.20568566024303436,0.03782849386334419,0.18239234387874603,0.02338385581970215,0.005304016172885895,0.09308099001646042
42,-1.6316594492147682,0.039225728553156015,0.4517141023190985,-0.9973807334899902,-0.03921566903591156,0.060778770595788956,-0.4253973066806793,-0.09996410459280014,0.2511272430419922,0.028874754905700684,-0.04713382199406624,0.07906807214021683
43,-1.6507296416618984,0.021932199533620446,0.4132016712483477,-0.9965673685073853,-0.02193044126033783,0.07982902228832245,-0.2751905620098114,-0.3172532320022583,0.1392642855644226,-0.015654921531677246,-0.09904123842716217,0.06972241401672363
44,-1.6945925965101631,-0.0011568669980832425,0.3927947463418488,-0.9923465251922607,0.0011568667832762003,0.12348023802042007,-0.06368488818407059,-0.5151381492614746,0.44585490226745605,-0.02906167507171631,-0.0014773010043427348,0.0665680319070816
45,-1.7357516759404885,-0.035032718301746486,0.3936329283600355,-0.9858205318450928,0.03502555191516876,0.164107546210289,0.6093350648880005,-0.6119972467422485,0.00022564083337783813,-0.14001882076263428,-0.15946097671985626,-0.235152468085289
46,-1.7410914267416109,-0.021953726101008653,0.45347146559834894,-0.9852972626686096,0.021951962262392044,0.16943234205245972,0.868208646774292,0.035066671669483185,-0.09435320645570755,0.1558142900466919,0.059880927205085754,-0.12026847898960114
47,-1.753479885838429,-0.06348985352435135,0.5201680256751937,-0.9813786149024963,0.06344720721244812,0.18130312860012054,0.7350918650627136,-0.2142343521118164,0.3372729420661926,-0.07491117715835571,-0.02243155986070633,-0.0940685123205185
48,-1.740777519200421,-0.07905989826646295,0.5805004157019905,-0.9825093150138855,0.0789775624871254,0.16863541305065155,0.5056858658790588,0.12152282148599625,-0.03921675682067871,0.06010031700134277,0.004228614270687103,-0.04012586176395416
49,-1.7197977774237354,-0.09762224027713398,0.6385752753035449,-0.9842113256454468,0.09746725857257843,0.14774391055107117,0.8572017550468445,0.2271815687417984,0.16838116943836212,0.027378439903259277,0.008535534143447876,-0.1363760232925415
50,-1.7061347273724674,-0.11305633375299089,0.7165491224081489,-0.984529972076416,0.11281564831733704,0.13406424224376678,0.584994375705719,0.027379781007766724,-0.05203995108604431,-0.051907896995544434,0.07909415662288666,0.1075587123632431
51,-1.6974616450027564,-0.12164990521725734,0.7845173704041049,-0.9846577048301697,0.12135008722543716,0.12539330124855042,0.9089364409446716,-0.03767959773540497,-0.031724754720926285,0.03682750463485718,0.020800799131393433,-0.03687715530395508
52,-1.697941968506511,-0.12768914494590955,0.8636441527263149,-0.9838524460792542,0.12734244763851166,0.12577103078365326,0.7970886826515198,-0.21390685439109802,-0.09368892759084702,-0.02783578634262085,0.012092351913452148,0.020514965057373047
53,-1.7039762816263324,-0.12471550069122216,0.9430635433253491,-0.9834465384483337,0.12439244985580444,0.1317552626132965,0.9498745203018188,-0.20863619446754456,-0.0707860067486763,0.02774280309677124,0.024350225925445557,-0.12134873867034912
54,-1.7057649276022742,-0.11590863557044993,1.0020563252167352,-0.9842567443847656,0.1156492754817009,0.1336563229560852,0.4462798237800598,-0.14152148365974426,-0.11427253484725952,0.07037734985351562,0.0924806296825409,0.01536107063293457
55,-1.7122158501181197,-0.10497337377921191,1.0417451875299815,-0.9845672249794006,0.10478068888187408,0.14017273485660553,0.3693767488002777,-0.12264218181371689,-0.2364620566368103,-0.015188634395599365,0.08142229914665222,0.013513803482055664
56,-1.716930712835346,-0.08624750917163729,1.0723467663237716,-0.9856639504432678,0.08614062517881393,0.1450735628604889,0.2827005684375763,-0.05166387930512428,-0.2613934278488159,-0.017876029014587402,0.03289320319890976,-0.012718811631202698
57,-1.7237658577509143,-0.06081577808251471,1.1031310455127468,-0.9864957928657532,0.06077829748392105,0.15209195017814636,0.3376689553260803,-0.12983834743499756,-0.29506099224090576,0.05793750286102295,0.07258348912000656,-0.004631057381629944
58,-1.7261936175392911,-0.045403616766670186,1.1408174818846146,-0.9869319796562195,0.04538801684975624,0.15461312234401703,0.2993268668651581,0.13063618540763855,-0.08432790637016296,-0.13349032402038574,0.07276079058647156,-0.03890573978424072
59,-1.7164946761375621,-0.025588608835156325,1.1886258491785302,-0.9890809655189514,0.02558581717312336,0.14513589441776276,0.527919352054596,0.2172207087278366,-0.38060715794563293,0.08070987462997437,-0.06741014122962952,-0.08767126500606537
60,-1.6989741859581124,0.002571370028116117,1.277773988388923,-0.9917930364608765,-0.0025713671930134296,0.1278267204761505,0.9653449654579163,0.24236342310905457,-0.3449050486087799,0.011965334415435791,-0.05046817660331726,-0.12279132008552551
61,-1.663448991567744,0.026829270007645775,1.4030738234590878,-0.9953523874282837,-0.026826051995158195,0.09248685836791992,1.1793675422668457,0.7379004955291748,-0.47546038031578064,-0.03437161445617676,-0.002379264682531357,-0.014392383396625519
62,-1.6161604325607848,0.06288578212544925,1.5108410027900192,-0.9969965815544128,-0.06284434348344803,0.045258909463882446,0.9806395769119263,0.32655808329582214,-0.2916089594364166,0.022036314010620117,0.030572034418582916,0.09142923355102539
63,-1.6014127759568675,0.08384823001229773,1.6052761357536212,-0.996019721031189,-0.08375001698732376,0.030504120513796806,0.8202884197235107,0.16007953882217407,-0.21389316022396088,-0.011487483978271484,-0.02388548105955124,0.05717289075255394
64,-1.6086884664959478,0.09535703956126526,1.6929107675957498,-0.9947425127029419,-0.09521259367465973,0.037710972130298615,0.827113926410675,-0.1807473599910736,-0.1568240374326706,-0.024819374084472656,-0.02435530722141266,0.046563390642404556
65,-1.6271712353683212,0.1030154162885606,1.7689021054612846,-0.9931185841560364,-0.10283330827951431,0.05604635551571846,0.8807517290115356,-0.20161285996437073,0.050023313611745834,0.02284252643585205,-0.01655144989490509,-0.0059059783816337585
66,-1.650190924609063,0.0862385619744383,1.8555529057350106,-0.9931455254554749,-0.08613170683383942,0.07901648432016373,0.8753640055656433,-0.22293886542320251,0.20436017215251923,0.030010640621185303,-0.028080351650714874,0.022744424641132355
67,-1.68310948166727,0.058470334410823964,1.9350752144776,-0.9920011758804321,-0.05843702331185341,0.11188562959432602,0.6805269718170166,-0.32974275946617126,0.130514457821846,-0.03583061695098877,-0.0976451188325882,-0.02190461754798889
68,-1.7171590217988748,0.04480047438918003,2.00927484418483,-0.9883155226707458,-0.04478548839688301,0.14569437503814697,0.7212328910827637,-0.36126285791397095,0.025598691776394844,0.016300082206726074,-0.1124258041381836,0.011608496308326721
69,-1.7628194036872396,0.02013158239392019,2.0890799386157957,-0.9814212918281555,-0.020130222663283348,0.19080650806427002,0.7860342860221863,-0.4856305718421936,0.18199443817138672,-0.04859280586242676,-0.07291784882545471,-0.02619469165802002
70,-1.796757657757264,0.0034506928703410735,2.163439642897064,-0.9745734930038452,-0.0034506861120462418,0.22404204308986664,0.7503893375396729,-0.17717668414115906,0.011217080056667328,0.035944223403930664,-0.02274864912033081,-0.09498319029808044
71,-1.8132705148532384,-0.01750100720786538,2.259734738104194,-0.9705982804298401,0.01750011369585991,0.24006840586662292,0.9673185348510742,0.05746622383594513,-0.20266151428222656,0.010133802890777588,0.0024736523628234863,-0.04406917095184326
72,-1.8056805427301992,-0.033007126856642116,2.3611391816670686,-0.9720115661621094,0.0330011323094368,0.23260362446308136,1.0597612857818604,0.08801770210266113,-0.09511921554803848,0.005794525146484375,-0.0243799090385437,-0.04289114475250244
73,-1.795398383128631,-0.03916724652468658,2.462325337604039,-0.9741351008415222,0.039157234132289886,0.22254762053489685,1.1033862829208374,-0.0888669416308403,-0.1785215437412262,-0.05223202705383301,0.023708995431661606,-0.08714117109775543
74,-1.7898972043224217,-0.043350933867387774,2.5526912783142457,-0.9751762747764587,0.04333735629916191,0.21714788675308228,0.8037332892417908,0.06664042919874191,-0.10377936065196991,0.01964038610458374,0.10195682942867279,-0.08705151081085205
75,-1.776472521700048,-0.05499455713823209,2.629724312979187,-0.9774430394172668,0.05496684089303017,0.2039203643798828,0.7871223092079163,0.023073136806488037,-0.049533531069755554,-0.059803545475006104,0.08298784494400024,-0.0349903404712677
76,-1.7646883194123844,-0.06127436861205425,2.698496694879593,-0.979420006275177,0.06123603135347366,0.19231776893138885,0.6905260682106018,0.049008600413799286,0.004899085499346256,0.060413897037506104,0.03858695924282074,-0.041927263140678406
77,-1.7549891650599718,-0.0794891655825396,2.7719669600000394,-0.9799802899360657,0.07940548658370972,0.1825747787952423,0.6844797730445862,0.017597828060388565,-0.012685731053352356,-0.051681697368621826,-0.004622161388397217,-0.011645793914794922
78,-1.7477543118631091,-0.08918967644996041,2.841035023120802,-0.9804712533950806,0.08907147496938705,0.17533621191978455,0.5958658456802368,-0.013724296353757381,0.047551870346069336,0.024263858795166016,0.03754596412181854,0.0012079626321792603
79,-1.745118425459195,-0.10493493080207986,2.8950080799596414,-0.97942715883255,0.10474245995283127,0.17248652875423431,0.43099382519721985,-0.009698167443275452,0.01299701351672411,0.010356605052947998,0.04100951552391052,0.018019452691078186
80,-1.7427318365548803,-0.12582161280598078,2.9394140446573216,-0.9774670004844666,0.12548989057540894,0.16973717510700226,0.5054649114608765,-0.09174562990665436,0.18496212363243103,-0.008266031742095947,0.036833107471466064,-0.015455484390258789
81,-1.738256161663131,-0.15112015017778974,2.9765354567474764,-0.9747739434242249,0.1505456119775772,0.16477864980697632,0.3948482275009155,-0.029751239344477654,0.1894361674785614,0.015514850616455078,0.01249454915523529,-0.03193557262420654
82,-1.7295728027712542,-0.17259804714373214,2.9957725148825283,-0.9727503657341003,0.17174236476421356,0.1557609885931015,-0.023089446127414703,0.1424245536327362,0.12136544287204742,0.005358278751373291,0.024546712636947632,0.0195319801568985
83,-1.7222393397723106,-0.1831337861219081,2.9834211159214052,-0.9720237851142883,0.18211184442043304,0.14834202826023102,-0.23832571506500244,0.12359938770532608,0.11575473845005035,0.01299351453781128,-0.01778993010520935,-0.01166902482509613
84,-1.714946576611098,-0.188449339991268,2.9570491567490853,-0.9721078276634216,0.18733590841293335,0.14110831916332245,-0.32475546002388,0.11674918234348297,0.10366883873939514,0.011872291564941406,0.04560475051403046,0.008366689085960388
85,-1.712880022214334,-0.19783145486069148,2.898774142221004,-0.9706148505210876,0.19654354453086853,0.13884411752223969,-0.7984393239021301,0.17969931662082672,0.21892738342285156,-0.022503554821014404,0.07025641202926636,-0.033695802092552185
86,-1.7075780018322606,-0.20403804646564286,2.7888901962160215,-0.9701101183891296,0.20262525975704193,0.13352705538272858,-1.236741542816162,0.32716861367225647,0.21693697571754456,0.04878437519073486,0.03481677174568176,-0.04044842720031738
87,-1.7023217150012777,-0.2134434988149966,2.6635137196104064,-0.9688663482666016,0.21182650327682495,0.128170445561409,-1.1714049577713013,0.22108513116836548,0.23274852335453033,-0.06407737731933594,0.0008352398872375488,-0.03507661819458008
88,-1.6994797477359178,-0.20941390795956422,2.531767148072843,-0.9700654745101929,0.20788665115833282,0.12552498281002045,-1.4519846439361572,0.33898401260375977,0.14135980606079102,0.02383720874786377,0.006865590810775757,-0.026876896619796753
89,-1.7014428025665878,-0.20031613737213724,2.3817087883478556,-0.9716522097587585,0.19897915422916412,0.12767013907432556,-1.4843899011611938,0.2632201910018921,0.035910651087760925,0.016406118869781494,-0.02786707878112793,-0.027480944991111755
90,-1.7074997714328597,-0.19190745185016597,2.2563948182300657,-0.9724842309951782,0.19073167443275452,0.13377632200717926,-1.175733208656311,0.20133048295974731,0.04283074662089348,0.014140605926513672,0.004794478416442871,-0.018770799040794373
91,-1.7123708104062827,-0.17974818219473965,2.1392550457042576,-0.974044919013977,0.17878182232379913,0.13882867991924286,-1.260899305343628,0.1898355334997177,0.004565066657960415,0.0228731632232666,0.03177420794963837,1.0952353477478027e-05
92,-1.720024364573796,-0.16092503169677486,2.008941925469818,-0.9761093258857727,0.160231351852417,0.14675384759902954,-1.3375757932662964,0.10103650391101837,-0.055967967957258224,-0.04310154914855957,0.01564142107963562,-0.010462284088134766
93,-1.7300036758161697,-0.13344931345594807,1.8764096686762628,-0.9785746335983276,0.13305357098579407,0.15712608397006989,-1.2488923072814941,0.07037492841482162,-0.058525148779153824,0.021436452865600586,0.04515381157398224,-0.05783711373806
94,-1.736334339206929,-0.10558381652767344,1.756256963414924,-0.9808372855186462,0.10538775473833084,0.16386538743972778,-1.0763028860092163,0.0744033232331276,-0.11435870826244354,-0.01644676923751831,0.03567974269390106,-0.028580889105796814
95,-1.741667516554546,-0.07673439120290643,1.6654328961237992,-0.9825371503829956,0.07665910571813583,0.16954053938388824,-0.7941345572471619,0.04878856614232063,-0.2045951634645462,0.011742591857910156,-0.034132905304431915,0.008346423506736755
96,-1.7398016837921113,-0.05671287351771632,1.611023378688616,-0.9841676354408264,0.05668247863650322,0.16793151199817657,-0.2943965792655945,0.041976358741521835,-0.053258802741765976,-0.012124359607696533,0.005970083177089691,-0.08467961847782135
97,-1.7287585106460563,-0.03887857337154267,1.5907781211885186,-0.9868037700653076,0.03886878117918968,0.15718723833560944,-0.17890475690364838,0.242372527718544,-0.1364431232213974,0.027849793434143066,0.05726156011223793,-0.03629182279109955
98,-1.7078359464507744,-0.028612635002092473,1.5743074913771262,-0.9902191758155823,0.02860873192548752,0.13655516505241394,-0.19782842695713043,0.2017710655927658,-0.08738089352846146,-0.014678776264190674,-0.041365090757608414,-0.03834964334964752
99,-1.6966969481613505,-0.01163887686884307,1.5614705069751467,-0.9920177459716797,0.011638614349067211,0.1255597621202469,-0.17235159873962402,0.00974811427295208,-0.14437086880207062,0.004621565341949463,-0.030162811279296875,0.07465074956417084
100,-1.7095010095743048,0.002905683696219125,1.54517506255052,-0.990391731262207,-0.0029056796338409185,0.13825976848602295,-0.24686339497566223,-0.15765398740768433,-0.1155863106250763,-0.06676769256591797,-0.026284366846084595,0.03671276569366455
101,-1.7320457458070193,0.015866260984383533,1.5196340437331055,-0.986903190612793,-0.015865596011281013,0.16053132712841034,-0.33866140246391296,-0.22248809039592743,-0.032321445643901825,0.048197805881500244,-0.008701024577021599,0.007239088416099548
102,-1.7507061264246935,0.01893903500696156,1.4771440191781413,-0.9836834073066711,-0.01893790252506733,0.17890875041484833,-0.49706992506980896,-0.1690964549779892,0.11618222296237946,-0.03685492277145386,0.0021837670356035233,-0.0003199726343154907
103,-1.768294604767815,0.01749815559425357,1.4259456073603543,-0.9804105758666992,-0.017497261986136436,0.1961868554353714,-0.6408815979957581,-0.15474356710910797,0.11248642951250076,0.017779231071472168,0.021067826077342033,0.002665787935256958
104,-1.7791805217220336,0.013036812019053472,1.3440146439998895,-0.9782831072807312,-0.013036442920565605,0.2068616896867752,-0.8802066445350647,-0.03671589866280556,0.257142573595047,-0.013034403324127197,-0.03164130076766014,-0.06208637356758118
105,-1.7748577030259314,0.010469153128420674,1.2430395219655295,-0.9791979789733887,-0.010468961670994759,0.20263700187206268,-0.8598244786262512,0.025016529485583305,0.31080588698387146,0.018245220184326172,-0.04334878921508789,-0.0367586612701416
106,-1.767434302136371,-0.005658140252408305,1.1562374840741008,-0.9807133078575134,0.00565811013802886,0.19537007808685303,-0.8529428839683533,0.13347843289375305,0.3279516398906708,0.018829762935638428,-0.046841591596603394,-0.014583960175514221
107,-1.7454503080902253,-0.018998675457160667,1.0644882901939698,-0.9846090078353882,0.01899753324687481,0.17373603582382202,-0.8769116997718811,0.24167539179325104,0.3220824599266052,0.007420897483825684,-0.07083162665367126,0.024597644805908203
108,-1.7318699189073112,-0.03701592273997785,0.9824187804159741,-0.9863795638084412,0.037007469683885574,0.1602681428194046,-0.7217181921005249,0.07187674939632416,0.33277392387390137,0.0023250579833984375,-0.08090701699256897,0.040018677711486816
109,-1.7306579270798357,-0.056786642956962084,0.8997325397002434,-0.9856579303741455,0.05675612762570381,0.15892498195171356,-0.7978178858757019,0.029174629598855972,0.41491860151290894,-0.09916561841964722,-0.030297372490167618,-0.07845009863376617
110,-1.7279663473116,-0.07061345366755989,0.8481570177782712,-0.9852128624916077,0.07055478543043137,0.15613366663455963,-0.4426184892654419,0.059166599065065384,0.2824747562408447,0.08465433120727539,0.08249089121818542,-0.012746810913085938
111,-1.7140929822179714,-0.1022063641966174,0.7855276103356494,-0.9845855236053467,0.1020285114645958,0.1420615017414093,-0.5936121344566345,0.2653713822364807,0.5471794009208679,0.027874767780303955,0.06374295800924301,-0.10455550253391266
112,-1.684597791514201,-0.14074933248544486,0.7126364922293252,-0.9837067127227783,0.14028507471084595,0.1124330535531044,-0.6797508001327515,0.41918542981147766,0.4706304967403412,0.049456894397735596,0.10976070165634155,-0.04132711887359619
113,-1.6521379278182946,-0.1847518478949863,0.6255786595475957,-0.9797317385673523,0.18370260298252106,0.07986917346715927,-1.0410529375076294,0.5894752740859985,0.4847736060619354,-0.013768017292022705,0.09158119559288025,-0.04837501049041748
114,-1.6003762651934264,-0.21868398256087337,0.4938704149008794,-0.9757567644119263,0.21694514155387878,0.028871245682239532,-1.3098781108856201,0.7052487730979919,0.4411711096763611,0.06091606616973877,0.07957892119884491,0.01679837703704834
115,-1.561815629605208,-0.25784598275797316,0.3716138804604626,-0.9669026732444763,0.2549983263015747,-0.00868369359523058,-1.0416043996810913,0.6202414631843567,0.3138492703437805,-0.03146475553512573,-0.01598462462425232,0.018922388553619385
116,-1.5319528218366547,-0.279459141135231,0.2619953871032036,-0.960479736328125,0.2758358120918274,-0.037327174097299576,-0.9564468264579773,0.5941839218139648,0.1206771731376648,0.047943174839019775,0.016522586345672607,0.004917502403259277
117,-1.5044183202312538,-0.29901680837373196,0.16881211094360016,-0.9535220861434937,0.2945807874202728,-0.06338601559400558,-0.9556923508644104,0.5826593041419983,0.16529376804828644,0.027756094932556152,0.05690541863441467,0.008225440979003906
118,-1.4804187580249157,-0.32406296804659107,0.06633575907430135,-0.9440805912017822,0.3184206783771515,-0.08555678278207779,-1.0824172496795654,0.6551790833473206,0.24542343616485596,0.019550621509552002,0.07505771517753601,0.001633472740650177
119,-1.4569892275860439,-0.36091552753049705,-0.05038226572449693,-0.9295216202735901,0.35313093662261963,-0.106245256960392,-1.1930878162384033,0.6846004724502563,0.3178079128265381,0.017244458198547363,0.06029066443443298,-0.004625134170055389
120,-1.4376130783246457,-0.3946162647999503,-0.15772485011048878,-0.9149689674377441,0.38445398211479187,-0.12258418649435043,-1.053706407546997,0.6205116510391235,0.09628988057374954,-0.025842130184173584,-0.014642030000686646,0.042918041348457336
121,-1.4244132326322998,-0.40403375046568296,-0.2420258721220419,-0.9096490144729614,0.39313048124313354,-0.13411656022071838,-0.6032219529151917,0.24481447041034698,-0.2806904911994934,-0.08981692790985107,-0.10081788897514343,0.115287184715271
122,-1.4439788347946265,-0.3643490948332149,-0.2931377487159652,-0.9268525838851929,0.3563411831855774,-0.11817532777786255,-0.1156560480594635,-0.26172566413879395,-0.5913223028182983,-0.07345259189605713,0.00974765419960022,0.08558255434036255
123,-1.4848583241715723,-0.29711561498046635,-0.3236444749499607,-0.9526562094688416,0.2927634119987488,-0.08207151293754578,-0.08952013403177261,-0.4325782060623169,-0.5932750701904297,0.09866756200790405,0.006980240345001221,-0.007024526596069336
124,-1.539244162913698,-0.23716758235370008,-0.28671823468912355,-0.9715235233306885,0.23495043814182281,-0.03066384606063366,0.5302960276603699,-0.6936655640602112,-0.7332892417907715,0.06237441301345825,-0.048137083649635315,0.02997720241546631
125,-1.5653380443868943,-0.16479595157353374,-0.2180916424775329,-0.986437201499939,0.16405105590820312,-0.00538430642336607,1.2811154127120972,-0.30080899596214294,-0.6072481870651245,-0.007382988929748535,0.05227281153202057,-0.21844685077667236
126,-1.5903551459608034,-0.11007416355971819,-0.031010119144249653,-0.9937579035758972,0.10985201597213745,0.0194392092525959,1.9861634969711304,-0.477559357881546,-0.47566550970077515,0.13268917798995972,0.01786404848098755,-0.1197504997253418
127,-1.5766954043400694,-0.04847635429480106,0.1138635043053373,-0.998807966709137,0.048457369208335876,0.005892114248126745,0.07053858786821365,1.2623910903930664,-0.4855429232120514,-0.019945204257965088,0.07037808001041412,0.17484819889068604
128,-1.6084103063223005,-0.035784009825559335,0.2011773285234601,-0.998652994632721,0.035776372998952866,0.03758103772997856,-0.18946130573749542,0.46962684392929077,-0.6012694835662842,0.13627201318740845,0.19600462913513184,0.6540694236755371
129,-1.56724173349068,-0.03128603343689637,0.15168910073336808,-0.9995041489601135,0.03128093108534813,-0.0035528456792235374,0.10274997353553772,-0.157230406999588,0.25845128297805786,0.03350090980529785,-0.05036967620253563,-0.1780572533607483
130,-1.5698766725851239,-0.03662577217298349,0.12412878206880971,-0.9993289113044739,0.03661758452653885,-0.000919037323910743,-1.1159336566925049,0.2071908712387085,-0.08478085696697235,0.04211455583572388,-0.08051712065935135,0.22360581159591675
131,-1.5626005322650003,-0.05072820909496133,0.02687386425164177,-0.9986801147460938,0.05070645362138748,-0.008185160346329212,-0.9048945307731628,0.0735655277967453,0.25226181745529175,-0.041389524936676025,-0.09922940284013748,0.006811857223510742
132,-1.5619582688894291,-0.08625273246450543,-0.05733838892335178,-0.9962437748908997,0.08614582568407059,-0.008805089630186558,-0.5964868068695068,0.15601550042629242,0.2569734752178192,-0.03973650932312012,-0.02486652135848999,-0.023680925369262695
133,-1.5487904932769732,-0.1349461892185121,-0.1379354731152762,-0.9906686544418335,0.1345369964838028,-0.02180400863289833,-0.7840563058853149,0.25031888484954834,0.7061693668365479,0.015921950340270996,-0.013931527733802795,-0.09626847505569458
134,-1.5275861008298217,-0.20789918121174764,-0.20922455568574602,-0.9775534272193909,0.20640477538108826,-0.0422666110098362,-0.9984365701675415,0.7588239908218384,0.4360577166080475,0.05810457468032837,0.031144052743911743,0.0770871639251709
135,-1.4891357968263106,-0.2662064118619359,-0.2888668773690249,-0.961560845375061,0.2630733847618103,-0.07869657129049301,-0.4744608402252197,0.4103776514530182,0.6104334592819214,0.08677446842193604,0.1267886757850647,-0.054588913917541504
136,-1.461004077228575,-0.3182325159257316,-0.3350601901329128,-0.9440712332725525,0.31288832426071167,-0.10407020896673203,-0.491729736328125,0.18905813992023468,0.3852166533470154,0.05753546953201294,0.18961414694786072,0.13139866292476654
137,-1.4621433010768465,-0.3679452941384138,-0.388245427883636,-0.9275661110877991,0.359699010848999,-0.10118134319782257,-0.178959921002388,0.035683296620845795,0.4663718342781067,0.08540308475494385,0.05108281970024109,-0.02526818960905075
138,-1.455263396143505,-0.3999311969271616,-0.38167890285996653,-0.9149472713470459,0.38935497403144836,-0.1061793863773346,-0.03829224780201912,0.2538342773914337,0.13775527477264404,0.09300220012664795,0.13627976179122925,0.0828486829996109
139,-1.4323459313128801,-0.4086855299699799,-0.3865571986827875,-0.9088630676269531,0.39740344882011414,-0.12664267420768738,-0.2525985836982727,0.463670551776886,-0.030417760834097862,0.20700454711914062,0.17170357704162598,0.14254230260849
140,-1.4037026990994168,-0.4121551386240277,-0.386988221623645,-0.9034982919692993,0.4005849361419678,-0.15238970518112183,0.4158482551574707,0.11134153604507446,0.08416946232318878,0.26442962884902954,0.0921671986579895,0.04963706433773041
141,-1.3941347772672608,-0.3949088101677131,-0.3473595236256259,-0.9086653590202332,0.3847240209579468,-0.16221731901168823,0.1689475178718567,-0.4342731237411499,-0.1077861413359642,-0.0644332766532898,-0.20228996872901917,-0.12362556159496307
142,-1.4121925273133666,-0.40528058176292703,-0.3022552354555734,-0.9074572324752808,0.39427661895751953,-0.1451452672481537,0.6651824712753296,-0.09027504175901413,0.5310540199279785,-0.44070249795913696,-0.2624102234840393,-0.16767512261867523
143,-1.3337759450283597,-0.415699943276042,-0.24787176191212523,-0.8892568349838257,0.403830349445343,-0.21480971574783325,-0.4384537935256958,0.8747555613517761,-0.17371660470962524,-0.26787811517715454,-0.2949894368648529,0.2894710302352905
144,-1.3214642647223616,-0.37472246012791643,-0.30446782020339114,-0.9018323421478271,0.3660142719745636,-0.22963407635688782,-0.6733994483947754,0.2699100375175476,-0.5116485357284546,0.1877363920211792,-0.0996415913105011,0.07681736350059509
145,-1.2941232117213501,-0.3652103042295215,-0.3496990367390269,-0.8985263109207153,0.3571457266807556,-0.2551417350769043,-0.1940504014492035,1.483024001121521,0.13958853483200073,0.030469119548797607,0.229310542345047,-0.019791096448898315
146,-1.169362647053253,-0.39903335742903084,-0.3072127155139029,-0.8481844067573547,0.3885278105735779,-0.3600408732891083,0.5076837539672852,0.46684831380844116,0.9315191507339478,0.40155965089797974,0.05556398630142212,0.19436097145080566
147,-1.101750501233259,-0.4815351772797179,-0.26715085336767297,-0.7905662059783936,0.4631403386592865,-0.4006321430206299,-0.16694276034832,0.8497869372367859,0.7618249654769897,-0.07656025886535645,0.04081171751022339,-0.09160113334655762
148,-0.9998305484564658,-0.5277331241389549,-0.21717879504211904,-0.726910412311554,0.5035761594772339,-0.4669177830219269,0.18333390355110168,0.2319680005311966,0.49456024169921875,-0.10486137866973877,0.09189802408218384,0.07639965415000916
149,-0.9899931139462012,-0.5514524650317941,-0.18811914820719838,-0.7120940089225769,0.5239249467849731,-0.46735942363739014,0.009497488848865032,-0.4341765344142914,0.0363171249628067,-0.3502534031867981,0.038773417472839355,-0.07965290546417236
150,-1.031167833127361,-0.5195439973181758,-0.22709951161817504,-0.7446960210800171,0.4964843690395355,-0.4460168778896332,-0.3363003134727478,-0.09993914514780045,-0.9114149808883667,-0.24547725915908813,-0.011071771383285522,-0.0005315244197845459
151,-1.091446453283444,-0.4434760309536534,-0.3015798947888156,-0.8014631271362305,0.42908182740211487,-0.41658833622932434,-0.09473519772291183,-0.31672677397727966,-1.1043716669082642,-0.12091553211212158,-0.016255229711532593,0.03578990697860718
152,-1.1585513795785958,-0.34653976243436485,-0.36347964156003076,-0.8617573976516724,0.33964529633522034,-0.376848965883255,-0.03317967802286148,-0.361720472574234,-1.1089763641357422,0.017763376235961914,-0.016464173793792725,0.004214078187942505
153,-1.210650317714925,-0.2443093584151401,-0.38060516030641534,-0.9080551266670227,0.24188624322414398,-0.34194591641426086,0.3047216236591339,-0.34147968888282776,-0.987390398979187,0.0729416012763977,-0.027149304747581482,-0.025195777416229248
154,-1.2316235098916217,-0.13520988997956235,-0.3621174599893479,-0.9344232082366943,0.13479828834533691,-0.3296705484390259,0.6255369186401367,-0.17783670127391815,-0.9379844665527344,0.05872136354446411,0.016233205795288086,-0.005778670310974121
155,-1.2306412085678915,-0.033763894855595035,-0.3371461914984686,-0.9421656131744385,0.03375748172402382,-0.33344316482543945,0.39689651131629944,0.17908895015716553,-0.6359372735023499,0.07134652137756348,0.17273971438407898,-0.011970043182373047
156,-1.2541261493018818,0.07135158766626397,-0.2932055776409117,-0.9478596448898315,-0.07129105925559998,-0.31061169505119324,0.20515482127666473,-0.4551844000816345,-1.3691813945770264,0.20834249258041382,0.4449940621852875,0.4039497375488281
157,-1.236240772615092,0.1526913295150438,-0.40957977307135035,-0.9335666298866272,-0.15209870040416718,-0.32452914118766785,-0.3604022264480591,-0.5774466395378113,-0.5341794490814209,-0.11709243059158325,-0.16326993703842163,-0.6273751258850098
158,-1.2704380773266122,0.26834966752113065,-0.4240546365496896,-0.9210426807403564,-0.2651405334472656,-0.2852734625339508,-0.275221049785614,-0.23648090660572052,-1.346616506576538,0.16713643074035645,-0.14030075073242188,0.2954663634300232
159,-1.1881715280659562,0.3603770521389513,-0.5058792856568675,-0.8680968880653381,-0.35262709856033325,-0.34937381744384766,-0.11010579019784927,0.7266473174095154,-0.9585561156272888,0.33222347497940063,-0.11062973737716675,0.006463050842285156
160,-1.1072522382749777,0.44785808262365306,-0.5387669510311038,-0.8062575459480286,-0.43303585052490234,-0.40302443504333496,0.3488205671310425,0.5454345345497131,-1.0720387697219849,0.14088284969329834,-0.05561158061027527,-0.011434763669967651
161,-0.996314584346939,0.547056806990577,-0.5789573890269195,-0.7169604897499084,-0.5201758146286011,-0.4640955924987793,0.3775828778743744,0.7395796179771423,-0.9526406526565552,-0.04832875728607178,0.16730105876922607,0.014373302459716797
162,-0.8656471658382544,0.6051140046727504,-0.659602021722542,-0.626298189163208,-0.5688558220863342,-0.533060610294342,-0.5897301435470581,0.6694774031639099,-0.6265995502471924,-0.025053739547729492,0.08298546075820923,-0.04163116216659546
163,-0.7855120731551269,0.6050246473272055,-0.6978036241222139,-0.5816531777381897,-0.5687823295593262,-0.581520676612854,0.4725790023803711,0.20582053065299988,0.06987398117780685,-0.5259212851524353,-0.15774959325790405,-0.20477992296218872
164,-0.7680896420950255,0.6207209450262822,-0.6748997800743367,-0.5651609897613525,-0.5816217660903931,-0.5850718021392822,0.30425727367401123,-0.09003125876188278,0.30511173605918884,-0.3445221781730652,-0.13883715867996216,-0.0738789439201355
165,-0.8916566085780874,0.6330624120328618,-0.5553567398971575,-0.6273302435874939,-0.5916165113449097,-0.506405770778656,0.6119382381439209,-0.4941793382167816,0.6084213852882385,-0.1302991509437561,0.08217132091522217,0.0769471526145935
166,-1.0019071104738246,0.6118433489524023,-0.45723757375072094,-0.6896624565124512,-0.5743773579597473,-0.4409719407558441,0.38929590582847595,-0.41016799211502075,0.7246793508529663,0.17216062545776367,0.11641538143157959,0.057274460792541504
167,-1.0509414059144948,0.5764148631564988,-0.4160549042140036,-0.7276591658592224,-0.5450215935707092,-0.41648969054222107,-0.15239273011684418,-0.21999900043010712,0.27085208892822266,0.2817515730857849,-0.0072550177574157715,0.07270920276641846
168,-1.0506039928083306,0.5682828077106836,-0.4337888379419447,-0.731340229511261,-0.5381855368614197,-0.4189243018627167,-0.18385368585586548,0.09834327548742294,-0.21922364830970764,0.28730952739715576,-0.06157636642456055,0.027063429355621338
169,-0.9813611169963803,0.6097125276288234,-0.5053141358869152,-0.6814732551574707,-0.5726318359375,-0.4557270407676697,-0.5778093338012695,0.5924134850502014,-0.9221177101135254,0.1705021858215332,0.0446929931640625,0.11225169897079468
170,-0.8647411310553941,0.6339864463960726,-0.6266365277136187,-0.6130582094192505,-0.5923612117767334,-0.5227502584457397,-0.7225893139839172,0.39078474044799805,-0.555213987827301,0.050283610820770264,0.0571286678314209,0.038298964500427246
171,-0.8020021463374716,0.6137248203466215,-0.6909779388980605,-0.5875839591026306,-0.5759165287017822,-0.5683884024620056,-0.02651841938495636,0.07463870942592621,0.24707701802253723,-0.28732454776763916,-0.17293906211853027,-0.1751265525817871
172,-0.8696289715642749,0.627672171701645,-0.6139084767142647,-0.6184515953063965,-0.5872622132301331,-0.5221499800682068,0.500029444694519,-0.23298604786396027,0.20817141234874725,-0.5687431693077087,-0.15352147817611694,0.015588700771331787
173,-1.00812779950376,0.6342928917547471,-0.4911027921808101,-0.681312084197998,-0.5926080942153931,-0.4296852946281433,0.968396782875061,-0.6968193650245667,0.9081622362136841,-0.14446306228637695,0.12851202487945557,-0.07174903154373169
174,-1.178097819208518,0.5868933340232527,-0.29039404661742124,-0.769282341003418,-0.5537768602371216,-0.3186466693878174,1.3394381999969482,-0.19256559014320374,1.3768393993377686,0.18535912036895752,0.10977667570114136,-0.03984329104423523
175,-1.276479977178959,0.49514566841837593,-0.10183851943837641,-0.8420643210411072,-0.47515982389450073,-0.25524619221687317,1.236341953277588,0.20549798011779785,1.3008853197097778,0.31516319513320923,-0.08387637138366699,0.020962804555892944
176,-1.291783315268525,0.407324283397008,0.043368936830749515,-0.8826757669448853,-0.3961539566516876,-0.2528742849826813,0.7423310875892639,0.26751387119293213,1.265221118927002,0.41999882459640503,-0.221552312374115,0.19704237580299377
177,-1.3436586056545243,0.30198365726011844,0.18591793583484129,-0.9302256107330322,-0.2974146902561188,-0.2149994820356369,1.1262481212615967,-0.3906073272228241,1.0799789428710938,-0.037639319896698,-0.26911360025405884,0.3417847752571106
178,-1.309208305993242,0.19826042234927924,0.21875723307873374,-0.9470575451850891,-0.19696412980556488,-0.2535487711429596,0.3551945090293884,0.17780166864395142,1.3526819944381714,-0.012170910835266113,-0.20443356037139893,-0.29910925030708313
179,-1.419112007177764,0.09516491386436673,0.43748247587373584,-0.984045147895813,-0.0950213372707367,-0.15041962265968323,1.386051893234253,0.13745972514152527,0.8333209753036499,-0.49823933839797974,0.1325121819972992,0.08297576010227203
180,-1.398515378508098,0.09596299739635258,0.4900197940767022,-0.9806634783744812,-0.09581577777862549,-0.1706412434577942,0.6169952154159546,-0.05196266248822212,0.14011558890342712,0.2989466190338135,0.287328839302063,-0.04845970869064331
181,-1.4224860444680394,0.0701847072451178,0.5509362575061595,-0.9865872859954834,-0.07012709975242615,-0.14740338921546936,0.326792448759079,-0.05249461904168129,0.3180519640445709,0.23292523622512817,0.10944901406764984,0.008151650428771973
182,-1.4425069606614265,0.03679368363139176,0.6215482761921494,-0.9911109209060669,-0.03678538277745247,-0.12785115838050842,1.2082152366638184,-0.24249732494354248,0.46598246693611145,-0.06240159273147583,0.0030634738504886627,-0.155321404337883
183,-1.4297988120375196,0.047397945456508425,0.7085371198441011,-0.988964319229126,-0.047380201518535614,-0.14037296175956726,1.0647813081741333,0.13898825645446777,-0.28496500849723816,-0.004977881908416748,0.02670454978942871,-0.09259819984436035
184,-1.4625258383729298,0.09421310118903332,0.8178811100595896,-0.9897356629371643,-0.09407378733158112,-0.10757985711097717,1.0456385612487793,-0.3157205581665039,-0.4601602554321289,-0.1560773253440857,0.07245209813117981,0.05217522382736206
185,-1.5039683550324214,0.16682352822290983,0.904447986425282,-0.9839159846305847,-0.16605082154273987,-0.06585116684436798,0.7314932346343994,-0.24139486253261566,-0.6088775396347046,0.10320925712585449,0.18368999660015106,-0.045553259551525116
186,-1.5429263899937327,0.21945369937303946,0.982355539930026,-0.9756375551223755,-0.21769645810127258,-0.027197998017072678,0.7310935258865356,-0.11392737925052643,-0.5399603843688965,-0.03032863140106201,0.2044823169708252,-0.0639427900314331
187,-1.5272610322577207,0.2774176673776656,1.021298615314522,-0.9608546495437622,-0.273872971534729,-0.04185754060745239,0.05446892976760864,0.4515508711338043,-0.44768863916397095,-0.08034408092498779,0.0786672830581665,0.008181333541870117
188,-1.5057622403301696,0.3163788539590144,1.0173408046453656,-0.9483591318130493,-0.3111271858215332,-0.061762768775224686,0.03727947920560837,-0.17196926474571228,-0.10674528032541275,0.025019407272338867,-0.1607356071472168,-0.12727832794189453
189,-1.4870019878071363,0.3629335211214386,0.9952096274686708,-0.9315793514251709,-0.3550181984901428,-0.07824429124593735,-0.2720571756362915,0.3104032874107361,-0.7440871596336365,0.1343228816986084,-0.14366954565048218,-0.04326146841049194
190,-1.4872979990452915,0.41326161555620805,0.9632663302442396,-0.9126250743865967,-0.4015984833240509,-0.07638025283813477,-0.5799464583396912,-0.2659684121608734,-0.4980064034461975,0.04119575023651123,-0.10676324367523193,0.10772181302309036
191,-1.464257593171202,0.46424918320376535,0.8817015795211073,-0.8890882730484009,-0.44775158166885376,-0.0950823575258255,-0.5915630459785461,0.0013405214995145798,-0.5912919640541077,0.2263074517250061,-0.15085077285766602,-0.020853891968727112
192,-1.4302922537852045,0.5299224580695845,0.8279907336271328,-0.8543433547019958,-0.5054664611816406,-0.12083491683006287,-0.13911758363246918,0.14984411001205444,-0.8043873906135559,0.24876779317855835,-0.18305587768554688,0.020065903663635254
193,-1.383677238190282,0.6144761318182475,0.7731899607158229,-0.802812933921814,-0.5765305757522583,-0.1519998013973236,-0.34502026438713074,0.23763082921504974,-1.0279451608657837,0.23527753353118896,-0.0526198148727417,0.009909987449645996
194,-1.283148610912801,0.7105448766186645,0.6977339088928749,-0.7268630862236023,-0.65224689245224,-0.21504448354244232,-0.3812856674194336,0.918622612953186,-0.869036853313446,-0.17932593822479248,0.07428973913192749,0.12468194961547852
195,-1.2247260712649133,0.7136005414090627,0.6127437763070893,-0.7111884951591492,-0.6545600295066833,-0.2564414143562317,0.5934759974479675,0.006859196815639734,1.048784613609314,-0.7790001034736633,0.32936471700668335,-0.4765602946281433
196,-1.3064048775871977,0.6498206121691601,0.743251379820261,-0.7685261368751526,-0.6050435900688171,-0.2080625295639038,0.04452495276927948,0.6843277215957642,0.6767640113830566,-0.30927854776382446,0.31247150897979736,0.06936010718345642
197,-1.326793362346605,0.5718178951561337,0.8187944367994212,-0.816009521484375,-0.5411616563796997,-0.20315665006637573,0.4905966818332672,0.15855525434017181,0.8917956948280334,0.03485107421875,0.10735428333282471,0.09282034635543823
198,-1.3287732856800718,0.5099037339305685,0.8503394335167028,-0.8473540544509888,-0.48809322714805603,-0.20917947590351105,-0.15594208240509033,0.054747775197029114,0.35415130853652954,0.22749632596969604,-0.013188481330871582,0.10892923176288605
199,-1.2626378731226715,0.49953087997292045,0.786201785209679,-0.8364570736885071,-0.4790138006210327,-0.26624277234077454,-0.5180311799049377,0.579184889793396,-0.3555241525173187,0.24951255321502686,-0.12013775110244751,-0.11635610461235046
200,-1.1643787396864822,0.5291407718928105,0.7153857197415432,-0.7929240465164185,-0.504791796207428,-0.34125757217407227,-0.4900127351284027,0.7547486424446106,-0.7923318147659302,-0.000502467155456543,-0.07195991277694702,-0.07520055770874023
201,-1.024884470742714,0.5781046570833411,0.6065921663466457,-0.7157726883888245,-0.5464375615119934,-0.43482786417007446,-0.47675761580467224,0.5559728145599365,-0.8335863351821899,-0.22715944051742554,-0.03467804193496704,-0.05526912212371826
202,-0.977636388336482,0.6020271675176017,0.5542575790097733,-0.68340003490448,-0.5663143992424011,-0.4607086181640625,0.4145704209804535,-0.49871277809143066,0.015514666214585304,-0.4600478410720825,-0.0531008243560791,-0.04899594187736511
203,-1.04669629802206,0.6086257831758929,0.5946046637911802,-0.7103114128112793,-0.5717405676841736,-0.4105733633041382,0.3873597979545593,-0.3892152011394501,0.23445558547973633,-0.2860722541809082,-0.011541962623596191,-0.007258057594299316
204,-1.178206808796806,0.577575840857801,0.6861064804834626,-0.7740509510040283,-0.5459946393966675,-0.3205230236053467,0.7271535992622375,-0.8375964760780334,0.9656682014465332,-0.021450698375701904,0.02335059642791748,-0.025500506162643433
205,-1.3188712666485771,0.504731834590606,0.8009250808630417,-0.8476747274398804,-0.48357272148132324,-0.21818597614765167,0.5710111856460571,-0.6292491555213928,1.074859857559204,0.12073063850402832,0.10108062624931335,0.07594355940818787
206,-1.402846580076278,0.38542164800170076,0.8391695275605601,-0.913601815700531,-0.375949889421463,-0.15489834547042847,-0.14520426094532013,-0.6843445897102356,1.4617494344711304,0.16608893871307373,0.007648497819900513,-0.027840912342071533
207,-1.4549419737169649,0.2495848903908962,0.8762058244041143,-0.9625192284584045,-0.2470017373561859,-0.11201365292072296,0.31757697463035583,-0.210054412484169,1.2784943580627441,0.2202247977256775,-0.08321374654769897,-0.08921922743320465
208,-1.4669985501032001,0.13210676603934282,0.9237682486159914,-0.9859513640403748,-0.1317228376865387,-0.10270868986845016,0.09994541108608246,0.09930361807346344,1.2003719806671143,0.18111127614974976,-0.1388460099697113,0.04242122173309326
209,-1.4662552823909762,0.0178468208411187,0.9279718215204774,-0.9943822622299194,-0.017845872789621353,-0.10433411598205566,0.3011305034160614,-0.7942467331886292,1.3485982418060303,-0.13470709323883057,-0.11992573738098145,-0.24669432640075684
210,-1.438261031243006,-0.028457897086696153,0.9876665956209848,-0.9908286333084106,0.02845405600965023,-0.1320941150188446,0.1739901453256607,0.8775224685668945,0.19801312685012817,0.1423180103302002,0.2552984058856964,0.14350774884223938
211,-1.4242149310173395,-0.08876453241465584,1.0375029958668733,-0.9853814244270325,0.08864801377058029,-0.14548203349113464,0.8470252156257629,-0.06994692981243134,0.8334448337554932,0.15156495571136475,0.1500299572944641,-0.11025524139404297
212,-1.3829505232687114,-0.16008170982307418,1.094876877856922,-0.9698480367660522,0.1593988686800003,-0.18435539305210114,0.18924835324287415,0.4476490914821625,1.131364107131958,0.10945069789886475,-0.0033319592475891113,-0.08192574977874756
213,-1.310250221206573,-0.2156613995718107,1.124311708335004,-0.9438663125038147,0.21399354934692383,-0.25164079666137695,-0.4659719467163086,1.288932204246521,0.3775566518306732,0.12797892093658447,-0.041615039110183716,0.07450151443481445
214,-1.226743565768177,-0.2657583784640566,1.1371012678177563,-0.9083463549613953,0.2626411020755768,-0.32546353340148926,0.18636415898799896,0.5519219040870667,0.48265010118484497,-0.09365248680114746,-0.05551829934120178,0.007760286331176758
215,-1.1358873395363522,-0.30070788495548106,1.1589872537917045,-0.866212785243988,0.2961964011192322,-0.40242165327072144,0.6660636067390442,0.46368035674095154,0.5706084370613098,-0.23278623819351196,0.11601975560188293,-0.07241660356521606
216,-1.0600567060924773,-0.33876363734248943,1.1953589563646616,-0.8228023648262024,0.33232125639915466,-0.4610409736633301,0.11675253510475159,0.40093767642974854,0.3835986852645874,-0.2497226595878601,-0.01507580280303955,-0.04477262496948242
217,-1.0612075535167553,-0.3518466588306987,1.2036120710416993,-0.8194667100906372,0.3446319103240967,-0.4579335153102875,0.030028991401195526,-0.10083302855491638,-0.14883702993392944,-0.2221592664718628,0.025805681943893433,0.017519116401672363
218,-1.1021397651320084,-0.3339996986798963,1.1943217235574877,-0.8428730964660645,0.32782432436943054,-0.4267272353172302,0.10202743113040924,-0.4862237572669983,-0.13493883609771729,8.165836334228516e-06,0.04990699887275696,-0.021102935075759888
219,-1.1468062876418672,-0.31442853727880216,1.1945372904424447,-0.8667689561843872,0.3092730641365051,-0.3912307918071747,-0.04630865529179573,-0.08512996882200241,-0.2705616056919098,0.13193631172180176,-0.005913108587265015,-0.03734278678894043
220,-1.1680637636893494,-0.3038573829476078,1.2030566857536351,-0.8778480291366577,0.299203097820282,-0.3739790618419647,0.046110525727272034,-0.251595675945282,0.17714497447013855,0.11141437292098999,0.0936954915523529,0.038590848445892334
221,-1.1743508229706592,-0.31424272703692324,1.1834333246907593,-0.8772681355476379,0.3090963661670685,-0.36723288893699646,-0.20030511915683746,0.24173210561275482,0.012397624552249908,0.19317084550857544,0.04661649465560913,-0.13719213008880615
222,-1.1439445047717836,-0.34075004794119645,1.2086824631602895,-0.8579367399215698,0.3341941237449646,-0.39020347595214844,-0.11498812586069107,0.39428454637527466,0.5487843751907349,0.0860404372215271,0.06758502125740051,0.06160551309585571
223,-1.1141796244625857,-0.40103987588279566,1.179898649287017,-0.8263338208198547,0.39037591218948364,-0.40592989325523376,-0.7249819040298462,0.518734872341156,0.22342142462730408,-0.014532268047332764,-0.04130059480667114,-0.06460535526275635
224,-1.0781103059451203,-0.4186064729222185,1.17401257958917,-0.8049911260604858,0.4064876437187195,-0.4321540892124176,0.3952285647392273,0.14642944931983948,0.15212057530879974,-0.23883211612701416,0.011542141437530518,-0.0522666871547699
225,-1.0838707071056548,-0.4002783458074829,1.1859805444745,-0.813915491104126,0.38967469334602356,-0.4309239089488983,-0.4144076108932495,-0.036657970398664474,-0.530388355255127,-0.21458804607391357,0.06294679641723633,0.15087932348251343
226,-1.1373294180770375,-0.36946773978259173,1.1190952053344323,-0.8462756276130676,0.3611191511154175,-0.39167654514312744,-0.21416299045085907,-0.5020185112953186,-0.4784986674785614,0.0717395544052124,0.0046035051345825195,0.03445303440093994
227,-1.1979832107856887,-0.3387281027095246,1.0638722410200254,-0.8783877491950989,0.3322877287864685,-0.34354010224342346,-0.46032682061195374,-0.19604623317718506,-0.48150110244750977,0.18920934200286865,0.019640982151031494,0.026248812675476074
228,-1.2160666832628946,-0.32107633652205037,0.9924402049448151,-0.8898184299468994,0.3155880868434906,-0.3295866549015045,-0.5906642079353333,0.2453012615442276,-0.26855143904685974,0.2579519748687744,0.05480378866195679,-0.02803361415863037
229,-1.2109724500113164,-0.3420129054893229,0.9735628739585364,-0.8817494511604309,0.3353841006755829,-0.33171573281288147,-0.24543094635009766,0.2114197313785553,0.3241369128227234,0.06474816799163818,0.0528605580329895,-0.012568354606628418
230,-1.1793789680883018,-0.3856671501228991,0.9426645168748171,-0.8564722537994385,0.3761773705482483,-0.35347700119018555,-0.3332999050617218,0.3502916395664215,0.3913789689540863,-0.05498099327087402,0.02534237504005432,-0.05342912673950195
231,-1.1607212518005336,-0.4245578856245457,0.9252752950616535,-0.8356724381446838,0.41191795468330383,-0.3632839024066925,-0.3363398015499115,-0.029222913086414337,0.11380252987146378,-0.1803339719772339,-0.002799302339553833,0.052523404359817505
232,-1.185533837768362,-0.42417164989779726,0.8793449880670144,-0.8445757627487183,0.41156598925590515,-0.3424988090991974,-0.10880861431360245,-0.13414447009563446,-0.2759631276130676,-0.12376236915588379,-0.039159923791885376,-0.04837039113044739
233,-1.2190947494903206,-0.39487897748145845,0.8465588163102002,-0.8665417432785034,0.38469648361206055,-0.317984402179718,-0.3661768138408661,-0.08137298375368118,-0.5185056328773499,0.018153071403503418,0.053673237562179565,0.0646885335445404
234,-1.2566877507831704,-0.36766879021068843,0.7699117840280556,-0.8875100016593933,0.35944101214408875,-0.28831973671913147,-0.5166094303131104,-0.1582043617963791,-0.3576412498950958,0.18037188053131104,0.07247433066368103,-0.03386959433555603
235,-1.2771576755421283,-0.36185713334418645,0.7353973973034016,-0.8952098488807678,0.3540117144584656,-0.2706933617591858,-0.06337805092334747,-0.06240002065896988,0.10520529747009277,-0.0717853307723999,0.16826608777046204,-0.05155697464942932
236,-1.2981783629356711,-0.36412216920506096,0.7104901215699397,-0.8999273777008057,0.35612913966178894,-0.2516005039215088,-0.5867506265640259,0.05808395519852638,-0.2759688198566437,-0.001317739486694336,-0.004505634307861328,0.014158487319946289
237,-1.3159437587777523,-0.34072494375781176,0.6634213403955229,-0.9120699763298035,0.33417046070098877,-0.23761002719402313,-0.08289042860269547,0.07100360095500946,-0.31128260493278503,-0.03841525316238403,-0.11560353636741638,-0.10026532411575317
238,-1.3070673971195048,-0.2879451580926909,0.6674504165680052,-0.9256775975227356,0.2839825749397278,-0.24994991719722748,-0.050384294241666794,0.19614434242248535,-0.8175129294395447,-0.026608169078826904,0.015364319086074829,0.1287798434495926
239,-1.3202714797824187,-0.2158863375630143,0.6264312973459288,-0.9462940096855164,0.2142132818698883,-0.24215763807296753,-0.3061797320842743,0.09483518451452255,-0.7449689507484436,0.010228335857391357,0.08992491662502289,0.03422611951828003
240,-1.3319836936148164,-0.1559271598473291,0.600773831108378,-0.9598317742347717,0.15529607236385345,-0.23367929458618164,0.1847366839647293,-0.44270074367523193,-0.5302762985229492,0.018959641456604004,-0.00031256675720214844,-0.012399181723594666
241,-1.3556462976881116,-0.09243349072118359,0.5909116026429276,-0.9727738499641418,0.09230192005634308,-0.21258260309696198,0.07061515748500824,-0.26444533467292786,-0.7266388535499573,0.04015672206878662,-0.016496270895004272,-0.024584710597991943
242,-1.3806870841843608,-0.028436340209258597,0.5958668906630412,-0.9815866947174072,0.028432507067918777,-0.1888897866010666,0.24720653891563416,-0.29114434123039246,-0.5702454447746277,0.014759302139282227,-0.026815086603164673,-0.014219999313354492
243,-1.405063541209152,0.037086234125508856,0.6148213163375813,-0.9856195449829102,-0.037077732384204865,-0.16486167907714844,0.3637072741985321,-0.05330953747034073,-0.6502331495285034,0.04305368661880493,-0.020127445459365845,-0.05324745178222656
244,-1.4125238402659261,0.11034698079248365,0.65721671332257,-0.9814950823783875,-0.1101231798529625,-0.15665392577648163,0.7791543006896973,-0.15378743410110474,-0.5946043133735657,0.11146938800811768,-0.04400588572025299,-0.03472180664539337
245,-1.4295518426030438,0.18004849685397226,0.7253952011874976,-0.9740375876426697,-0.17907728254795074,-0.1384996771812439,0.665276288986206,0.008615056984126568,-0.6518798470497131,0.11524242162704468,-0.015212848782539368,0.03786797821521759
246,-1.4489150265469337,0.2445798400712763,0.7815834019093136,-0.9630415439605713,-0.24214869737625122,-0.11796143651008606,0.47713202238082886,-0.12470230460166931,-0.6357561349868774,0.08245688676834106,-0.035301849246025085,0.053630419075489044
247,-1.4719139469933198,0.31997554570085185,0.8111910383315168,-0.9446061849594116,-0.31454333662986755,-0.0937105268239975,0.27451878786087036,-0.17620573937892914,-0.6775785088539124,-0.12312757968902588,0.032850831747055054,-0.005608916282653809
248,-1.5055063462051714,0.3603573106241553,0.8179015523193672,-0.9337770342826843,-0.3526086211204529,-0.061053063720464706,0.18403448164463043,-0.40317365527153015,-0.1809491217136383,-0.3187100887298584,0.16878598928451538,-0.09768408536911011
249,-1.5029575239204638,0.38230369080829135,0.8010516311091819,-0.9256737232208252,-0.37305882573127747,-0.0628931075334549,-0.19224384427070618,0.32251623272895813,-0.2421167939901352,-0.14196860790252686,0.25251439213752747,-0.048190899193286896
250,-1.518670921502138,0.3643743508234893,0.8081667583343481,-0.9330779314041138,-0.35636478662490845,-0.04868116229772568,0.025968246161937714,0.12691180408000946,0.5883915424346924,0.0072203874588012695,0.07630497217178345,0.05283153057098389
251,-1.5147302667162446,0.31791804168378923,0.8378170363367263,-0.9483957886695862,-0.3125896155834198,-0.053228601813316345,0.3426678478717804,-0.06516525894403458,0.23116537928581238,0.03973489999771118,-0.08125495910644531,0.02707505226135254
252,-1.5072389942954192,0.3214013357426418,0.8401880499331371,-0.9468778967857361,-0.3158964514732361,-0.060262199491262436,-0.22351622581481934,0.14870797097682953,-0.15035903453826904,0.22962331771850586,-0.11467605829238892,0.014089111238718033
253,-1.4628217646868331,0.3263366017839374,0.8117487185843584,-0.9417068362236023,-0.32057511806488037,-0.10207737982273102,-0.043770864605903625,0.437950998544693,-0.20829521119594574,0.031672656536102295,-0.20739421248435974,-0.16089260578155518
254,-1.4511000032012866,0.35390013668758263,0.8437809679337034,-0.931316614151001,-0.3465588688850403,-0.11201062053442001,0.822439432144165,-0.4422549307346344,0.03844970464706421,-0.15983939170837402,-0.009825408458709717,-0.09924733638763428
255,-1.5157035064517255,0.3631357529652372,0.9195145090553833,-0.9333693385124207,-0.355207234621048,-0.051474038511514664,0.3853187561035156,-0.19512231647968292,-0.197771817445755,-0.16027390956878662,0.20303133130073547,0.05635683983564377
256,-1.5287298516367522,0.3670936133179477,0.9317287464462699,-0.9325487017631531,-0.3589042127132416,-0.03925219178199768,0.025003310292959213,-0.10141558200120926,0.22337141633033752,0.032127559185028076,0.20976480841636658,-0.027978062629699707
257,-1.5210432372018066,0.3241282705205027,0.9317691735995012,-0.9467556476593018,-0.31848257780075073,-0.04714292287826538,-0.14333376288414001,0.10730043053627014,0.4305655360221863,0.08571749925613403,0.05980035662651062,0.009407881647348404
258,-1.4977833851887565,0.2879752466409613,0.9142322712473362,-0.956266462802887,-0.2840114235877991,-0.06994415819644928,-0.1822306364774704,0.3157649338245392,0.23913639783859253,0.1380596160888672,-0.08804360032081604,-0.025331735610961914
259,-1.4745346843451264,0.2639748490497462,0.9172150075869464,-0.9608912467956543,-0.2609197795391083,-0.09278373420238495,0.34365594387054443,0.04679645597934723,0.24386906623840332,0.022628366947174072,-0.16223695874214172,-0.07851140946149826
260,-1.480752382059799,0.2678753249716664,0.9560706815746043,-0.9604286551475525,-0.2646831274032593,-0.08671527355909348,0.2856040596961975,-0.03259657323360443,-0.27829790115356445,-0.12932348251342773,-0.015712380409240723,0.024230539798736572
261,-1.478978653026718,0.3014355937786759,0.9550145573407093,-0.9508888721466064,-0.29689139127731323,-0.08755458891391754,-0.09916150569915771,-0.10455074161291122,-0.19671672582626343,-0.04525059461593628,0.13229486346244812,-0.014068953692913055
262,-1.4768289374886634,0.300655953205111,0.9391351033858116,-0.9509286880493164,-0.29614681005477905,-0.08962022513151169,-0.17800107598304749,0.005141890607774258,0.07000292837619781,-0.0631551742553711,0.12457695603370667,-0.016321539878845215
263,-1.4656207598254967,0.27684321218446734,0.9378286868979163,-0.9566075801849365,-0.27332043647766113,-0.10098437964916229,0.0736430436372757,0.007021145895123482,0.1576245278120041,0.05838370323181152,0.04388928413391113,0.07489186525344849
264,-1.4588143391353299,0.24962040825148032,0.9544895386562849,-0.9629369378089905,-0.2470361441373825,-0.1082846000790596,0.14769434928894043,0.18819333612918854,0.2589927911758423,0.11888182163238525,-0.058185383677482605,0.0573965385556221
265,-1.4595473211350865,0.23233505957923117,0.9771291722538489,-0.9671156406402588,-0.23025046288967133,-0.10803672671318054,0.24876609444618225,0.05809444934129715,0.10210010409355164,0.08148032426834106,-0.13531960546970367,-0.022319070994853973
266,-1.47070700570309,0.2506645720484802,0.9951303643887678,-0.9638993144035339,-0.2480478137731552,-0.09679948538541794,0.14944739639759064,-0.14827367663383484,-0.32812249660491943,-0.025068461894989014,-0.1442098319530487,-0.02459941804409027
267,-1.4759129065480123,0.2992398157147165,0.9918554180333522,-0.9512627720832825,-0.29479390382766724,-0.09053090214729309,-0.026798628270626068,-0.07045349478721619,-0.4597347676753998,-0.007889509201049805,0.018853962421417236,-0.04968208074569702
268,-1.4846980082341081,0.3263234244111496,0.978808681415759,-0.943718671798706,-0.3205626606941223,-0.08145395666360855,-0.08532128483057022,-0.348071426153183,0.07912404835224152,-0.09221577644348145,0.1209319531917572,-0.07963305711746216
269,-1.513679016465423,0.30320453831341554,0.9772921659256086,-0.9528282284736633,-0.2985801100730896,-0.054482243955135345,0.01365738920867443,0.05378001555800438,0.051306530833244324,-0.23100966215133667,0.06341162323951721,-0.03368300199508667
270,-1.5029192271390244,0.30895450676528685,0.9861550842590469,-0.9504582285881042,-0.3040628135204315,-0.06461361050605774,0.30860617756843567,-0.1526111364364624,0.03619098663330078,0.08653616905212402,0.13910004496574402,0.013695009052753448
271,-1.5274948304898022,0.2841703187947583,1.0249566683326632,-0.9589948654174805,-0.280361145734787,-0.04155188426375389,0.3075891435146332,-0.023703498765826225,0.2645620107650757,0.03716564178466797,0.08228680491447449,0.05717688798904419
272,-1.4663231404904449,0.28640653915339526,1.0138007573363987,-0.9540350437164307,-0.2825069725513458,-0.10003529489040375,-0.4442957043647766,0.9355740547180176,-0.046924080699682236,0.25100159645080566,-0.07016944885253906,0.11533987522125244
273,-1.4591872593174144,0.26578345533929437,0.9987462387727435,-0.9588836431503296,-0.2626653015613556,-0.10746670514345169,0.04262502118945122,-0.5178952217102051,0.21675105392932892,0.05963742733001709,-0.2824549376964569,-0.0833139419555664
274,-1.4785020121605368,0.28685655235336577,0.9846098755894122,-0.9550557732582092,-0.2829386293888092,-0.08839735388755798,-0.2546086013317108,-0.2833000719547272,-0.4614088535308838,-0.1702646017074585,-0.1474507749080658,-0.09850757569074631
275,-1.4968017941950575,0.3204320456375572,0.9500954865695737,-0.9465024471282959,-0.31497663259506226,-0.07016410678625107,-0.3975123465061188,-0.14453637599945068,-0.2704271972179413,-0.24862706661224365,0.11313337087631226,-0.07311589270830154
276,-1.4927119054412048,0.3390119402814014,0.9158537624176419,-0.9402101635932922,-0.3325554430484772,-0.07356534153223038,-0.18473562598228455,0.3568565249443054,-0.2550509572029114,-0.18463724851608276,0.2956138849258423,0.04832732677459717
277,-1.4968725487444399,0.3084858649488264,0.9265678464750657,-0.9501921534538269,-0.30361631512641907,-0.07037002593278885,-0.5210419297218323,0.08450883626937866,1.431359887123108,0.08500361442565918,0.21262815594673157,0.19526320695877075
278,-1.5258083486679448,0.1756958814499416,0.9422341138092296,-0.9836089611053467,-0.17479334771633148,-0.04428045451641083,-0.1734643131494522,-0.035602863878011703,1.1365264654159546,0.08549189567565918,-0.12464511394500732,0.07437080144882202
279,-1.5278906369055487,0.07348064192746251,0.9168963056921106,-0.9963836669921875,-0.07341453433036804,-0.04277678206562996,-0.23239703476428986,-0.2138568013906479,0.9615981578826904,0.045242369174957275,-0.26052406430244446,-0.14618808031082153
280,-1.5475833673386392,0.0027414155091908966,0.8960998790715343,-0.9997267127037048,-0.002741412026807666,-0.023210784420371056,-0.1759960800409317,-0.1636374145746231,0.382730633020401,0.012376368045806885,-0.20808929204940796,-0.09493803977966309
281,-1.5608824848679963,-0.0154181309789897,0.8631338590034946,-0.9998319149017334,0.015417519956827164,-0.009912500157952309,-0.48525285720825195,-0.11176414042711258,0.02643560618162155,-0.01817333698272705,-0.030218573287129402,-0.017370223999023438
282,-1.4463071918002026,0.03828979991873365,0.7909115716565782,-0.9915338754653931,-0.03828044608235359,-0.12407682090997696,-1.0331971645355225,1.4106876850128174,-0.4474002420902252,0.17964434623718262,0.367275208234787,0.26418304443359375
283,-1.4973877535296687,-0.057864208850127274,0.7437593318195795,-0.9956377148628235,0.05783192440867424,-0.0732199177145958,-0.3491505980491638,-1.1958805322647095,1.785643458366394,0.145189106464386,0.017897427082061768,-0.05646449327468872
284,-1.565316135820197,-0.22850254548149107,0.7175464071936635,-0.9739922285079956,0.22651924192905426,-0.0053377170115709305,-0.19994358718395233,-0.2191404551267624,1.4099318981170654,-0.23711323738098145,-0.28561651706695557,-0.14483928680419922
285,-1.5689816295338563,-0.30222069864274925,0.7533756165103035,-0.9546761512756348,0.29764097929000854,-0.0017324500950053334,0.6783483028411865,0.20052915811538696,-0.18494677543640137,-0.2731984257698059,-0.21771550178527832,0.025246262550354004
286,-1.5586703994534217,-0.2596146715217013,0.8073574893707953,-0.9664180278778076,0.25670814514160156,-0.011719289235770702,-0.320740669965744,0.7632884979248047,-0.276947945356369,0.17589056491851807,0.14111903309822083,0.14207512140274048
287,-1.5636374194325169,-0.2682817802147234,0.7947164268372073,-0.9642030596733093,0.26507508754730225,-0.006902758032083511,-0.06413856148719788,0.014838842675089836,0.364572674036026,0.1378328800201416,0.13516294956207275,-0.08538234233856201
288,-1.5389683069404438,-0.32155968551276803,0.7913444387570767,-0.9482631683349609,0.31604668498039246,-0.030191535130143166,0.22634373605251312,0.24876634776592255,0.6070684194564819,0.07883262634277344,0.033196479082107544,-0.1259058713912964
289,-1.5205514961460314,-0.38775551515040846,0.8320348191757114,-0.9245917201042175,0.37811151146888733,-0.04649508744478226,-0.044853340834379196,0.18641076982021332,0.6461008787155151,-0.0017998814582824707,-0.05267208814620972,0.20086830854415894
290,-1.5164705385864592,-0.44176304524914617,0.8175056339229267,-0.9026656150817871,0.42753392457962036,-0.0490863211452961,-0.22369113564491272,0.04770902916789055,0.4329182803630829,-0.10848850011825562,-0.02709752321243286,-0.05366635322570801
291,-1.4963987692441802,-0.4597083464368506,0.7765219276092175,-0.8937028646469116,0.44368675351142883,-0.06661225855350494,-0.26675811409950256,0.5521333813667297,-0.1813729703426361,-0.1237531304359436,-0.03159263730049133,-0.03691863268613815
292,-1.4963335202446277,-0.443794287227571,0.7478752950934185,-0.9006262421607971,0.4293692708015442,-0.06718738377094269,-0.2546025216579437,0.07259242236614227,-0.2769372761249542,-0.044716596603393555,-0.07733380794525146,0.07030016928911209
293,-1.5052793435268903,-0.4202631284384942,0.7290380776456759,-0.9110229015350342,0.4080007076263428,-0.05977302044630051,-0.09368061274290085,0.022173497825860977,-0.2159050554037094,0.05993342399597168,0.08545330166816711,-0.009379804134368896
294,-1.5065583491967935,-0.4191239831784971,0.7219630475505265,-0.9115617275238037,0.4069604277610779,-0.05863756313920021,0.13541117310523987,-0.055782001465559006,0.1643252819776535,0.148210346698761,0.04588991403579712,-0.02459913119673729
295,-1.4994305975743216,-0.4546224177534983,0.7404200470709702,-0.8961400985717773,0.43912312388420105,-0.06406249105930328,0.4517490565776825,-0.10772284120321274,0.4071875214576721,-0.051598548889160156,-0.03137773275375366,-0.12264406681060791
296,-1.4892917396279062,-0.4749861634252559,0.7685935219649493,-0.8863469362258911,0.45732614398002625,-0.0724017322063446,0.13347023725509644,-0.06893230229616165,0.1593284010887146,-0.09445750713348389,-0.05531811714172363,-0.017579376697540283
297,-1.4951230801509972,-0.4825448223482971,0.790774147589009,-0.8832818865776062,0.46403491497039795,-0.06696868687868118,-0.049715813249349594,-0.05184648558497429,-0.17972418665885925,-0.1570013165473938,-0.05738818645477295,0.052930593490600586
298,-1.4980100419846134,-0.4577957308149935,0.7795002645155675,-0.8946539163589478,0.44197189807891846,-0.06523377448320389,0.01623285934329033,-0.053179558366537094,-0.14537984132766724,0.08595329523086548,0.010695338249206543,0.03189331293106079
299,-1.495784501472066,-0.4522643375720127,0.7907360204436662,-0.8969306349754333,0.43700334429740906,-0.06740687787532806,0.02508881874382496,-0.028907442465424538,-0.16259030997753143,0.04085153341293335,0.00386887788772583,0.03701132535934448
300,-1.4986569237788874,-0.4566009091043395,0.8008503494339325,-0.8952218294143677,0.4408997893333435,-0.06469302624464035,0.19823867082595825,-0.02534383349120617,0.23719486594200134,0.09611910581588745,-0.002896249294281006,-0.021686963737010956
301,-1.498026834762401,-0.48159188906538375,0.8246966483473797,-0.8839132785797119,0.46319058537483215,-0.0644356980919838,0.15826989710330963,-0.11343499273061752,0.308291494846344,-0.03809916973114014,-0.017069339752197266,0.02178739756345749
302,-1.500991775668845,-0.512568052749904,0.8374685954707003,-0.8693655729293823,0.49041688442230225,-0.06078443303704262,-0.11482002586126328,0.09308673441410065,0.2582241892814636,-0.07593166828155518,0.035645127296447754,0.02114206552505493
303,-1.4955651802599306,-0.5052241271547083,0.8013686032846332,-0.8725908994674683,0.48400357365608215,-0.06577014178037643,-0.36431387066841125,0.4565430283546448,-0.3330881893634796,0.02545344829559326,-0.04207852482795715,-0.04432201385498047
304,-1.4859491794889694,-0.5043858600551753,0.8289374155054773,-0.8723220825195312,0.4832698702812195,-0.07419216632843018,0.40847378969192505,-0.06976141035556793,0.03321216255426407,-0.06157684326171875,-0.04715844988822937,0.07028591632843018
305,-1.4785890602650464,-0.4922630836262791,0.8534430995821884,-0.8775219321250916,0.47262147068977356,-0.08114399760961533,0.020665379241108894,0.008927494287490845,-0.21342381834983826,-0.022533059120178223,0.057377368211746216,0.022733323276042938
306,-1.485379422699244,-0.47774324546836033,0.8444923656140557,-0.8847970366477966,0.45977628231048584,-0.07576096802949905,-0.08795579522848129,-0.03970181569457054,-0.07061890512704849,0.10357767343521118,7.781386375427246e-05,-0.045592181384563446
307,-1.4880416159067709,-0.48089971483367155,0.8509426121283401,-0.8835448622703552,0.46257704496383667,-0.07328487187623978,0.04102372005581856,0.013376737013459206,0.013830332085490227,-0.02981555461883545,-0.05373314023017883,-0.016009554266929626
308,-1.4830752072613804,-0.4832647303025871,0.868927050262068,-0.882077693939209,0.4646725058555603,-0.0775759294629097,-0.042797502130270004,-0.023444857448339462,0.10313103348016739,-0.0040915608406066895,-0.019436389207839966,0.0762331634759903
309,-1.4825114567828424,-0.48945613321558273,0.8501111922293367,-0.8791513442993164,0.47014594078063965,-0.07781804352998734,-0.2306295484304428,0.24634705483913422,0.0074605559930205345,0.03006082773208618,-0.029640018939971924,-0.0010851547122001648
310,-1.4777688426261166,-0.494850901885391,0.8615303124112779,-0.8762342929840088,0.4749004542827606,-0.08174983412027359,0.1125393658876419,-0.04885450005531311,0.038466766476631165,-0.06953597068786621,0.020903408527374268,0.0673760175704956
311,-1.4852639763403286,-0.4899904852774173,0.843546083263894,-0.8791117072105408,0.47061750292778015,-0.07537639141082764,-0.2228797823190689,0.041696105152368546,-0.0593729093670845,0.025535166263580322,-0.009603768587112427,-0.023317448794841766
312,-1.4898699065929684,-0.4945803517902877,0.8457573013047486,-0.8772873282432556,0.47466233372688293,-0.07115111500024796,0.3171381950378418,-0.1597573161125183,0.08747123926877975,-0.02311849594116211,-0.06284287571907043,-0.060211777687072754
313,-1.4837493907214567,-0.5001749963002015,0.8888128517687341,-0.8741762042045593,0.4795790910720825,-0.07628713548183441,0.3746911883354187,-0.28418299555778503,0.1916542649269104,-0.0340878963470459,0.024220287799835205,0.0742424800992012
314,-1.4875928483839485,-0.48561989256607485,0.8717579337749354,-0.88132643699646,0.466756671667099,-0.07349910587072372,-0.37320882081985474,0.21578863263130188,-0.3737665116786957,0.04995119571685791,0.01716059446334839,-0.04907477647066116
315,-1.4770110753691452,-0.4553238464433845,0.8570295985140055,-0.8941717147827148,0.4397531747817993,-0.08410685509443283,-0.019053667783737183,0.1312645524740219,-0.4254242181777954,-0.04287046194076538,-0.024881988763809204,0.013763852417469025
316,-1.457484765540195,-0.4036684363188876,0.8498635693616688,-0.913728654384613,0.39279457926750183,-0.10398142784833908,0.03350033611059189,0.1639750748872757,-0.3941434621810913,0.015871107578277588,-0.04709148406982422,0.012810125946998596
317,-1.4578482960247474,-0.3564926444658162,0.8612761934478962,-0.9311554431915283,0.3489895462989807,-0.10562171041965485,-0.15079492330551147,0.08028533309698105,-0.6282638907432556,-0.10313105583190918,-0.1343594193458557,0.07728612422943115
318,-1.4752316799658363,-0.3060993292009752,0.8359170080898904,-0.949165403842926,0.30134159326553345,-0.0909838005900383,-0.08437386900186539,-0.43653327226638794,-0.48794957995414734,0.11344164609909058,-0.19198188185691833,-0.03184943646192551
319,-1.5289915341323532,-0.27550665205073827,0.7918398117269091,-0.9614467620849609,0.27203452587127686,-0.040216512978076935,-0.8737558722496033,-0.41774970293045044,-0.3734334707260132,-0.06006813049316406,-0.22210776805877686,-0.13393205404281616
320,-1.5520306807375357,-0.24678171806695254,0.6419638539138884,-0.9695329070091248,0.24428445100784302,-0.018196046352386475,-1.5283852815628052,0.45787498354911804,-0.13569286465644836,-0.40006548166275024,0.1331416666507721,-0.044029295444488525
321,-1.4247905360927793,-0.1539034483748326,0.42671329275627334,-0.9776659607887268,0.1532966047525406,-0.14376795291900635,-3.0468785762786865,2.2818636894226074,-1.646847128868103,0.26048773527145386,0.3821648359298706,0.40682947635650635
322,-1.4075312060095633,-0.14262768537912385,0.2341880939717288,-0.976682722568512,0.1421446055173874,-0.16089031100273132,-0.7950957417488098,-0.48893171548843384,0.4529050886631012,0.20992863178253174,0.1904054433107376,0.1490342766046524
323,-1.4374387970512303,-0.19781733859664907,0.1627452027294581,-0.9717921018600464,0.19652970135211945,-0.13036955893039703,-0.6156291961669922,-0.014940374530851841,0.35579410195350647,0.09662425518035889,-0.010143592953681946,0.10955655574798584
324,-1.4308291077032163,-0.21430748408108813,0.14102292561100926,-0.9675682783126831,0.21267080307006836,-0.13631920516490936,-0.007922312244772911,0.17648917436599731,-0.21036683022975922,0.006600141525268555,-0.09392687678337097,0.11292748153209686
325,-1.4373033078572508,-0.1950368617920415,0.14294297934165187,-0.9723123908042908,0.19380269944667816,-0.13057346642017365,0.2352430671453476,-0.6437615156173706,0.19082584977149963,-0.07790440320968628,0.009368106722831726,-0.14651085436344147
326,-1.4772471981195492,-0.17965083447384508,0.15025622193903998,-0.9796039462089539,0.17868603765964508,-0.09190936386585236,-0.6967473030090332,0.6607723236083984,-0.5736148953437805,-0.025049924850463867,0.014780133962631226,-0.00023847073316574097
327,-1.4589982051004584,-0.15946701613647765,0.1319520764443136,-0.9811484217643738,0.15879200398921967,-0.11014984548091888,0.3755471110343933,-0.11770248413085938,0.07816949486732483,0.05637425184249878,-0.08083485066890717,-0.10435819625854492
328,-1.4644638218219121,-0.1553738936325639,0.17693786022393643,-0.9823738932609558,0.15474949777126312,-0.10485375672578812,0.13379527628421783,0.07389664649963379,-0.09928295761346817,-0.0021842122077941895,-0.12726841866970062,0.04397118091583252
329,-1.4618069152654425,-0.1468988709525907,0.19121982718384944,-0.9833600521087646,0.14637111127376556,-0.10760223120450974,0.35565856099128723,0.001043129712343216,-0.15431524813175201,-0.10808569192886353,-0.12903715670108795,-0.06939969211816788
330,-1.4505705679557048,-0.11486853929820455,0.24334502432280916,-0.9862390756607056,0.11461609601974487,-0.1191459447145462,0.8949639201164246,-0.0702846571803093,-0.25308123230934143,-0.059705138206481934,-0.11463135480880737,-0.07255023717880249
331,-1.4233651409978914,-0.059743786928429576,0.29479893321486245,-0.9873868227005005,0.05970825254917145,-0.14663557708263397,0.36426958441734314,0.34505653381347656,-0.6603037714958191,-0.002298116683959961,-0.10775818675756454,0.02760179340839386
332,-1.420517587796952,0.014233491697133603,0.31792212738192843,-0.988629162311554,-0.014233010821044445,-0.14969857037067413,0.24705028533935547,-0.35362496972084045,-0.8101027011871338,-0.06357109546661377,-0.07406958937644958,-0.05022208392620087
333,-1.4418346016532673,0.10945118426786797,0.3127994227260781,-0.985761821269989,-0.10923278331756592,-0.1278350055217743,-0.2367480844259262,-0.4148738384246826,-0.8106245994567871,0.06382584571838379,0.04877747595310211,-0.030307039618492126
334,-1.3991006546979985,0.20297703198745645,0.23271678214906943,-0.9650691747665405,-0.20158614218235016,-0.16734585165977478,-1.4257115125656128,1.8244308233261108,-1.5008686780929565,-0.07065165042877197,0.03799666464328766,0.12738311290740967
335,-1.009366143154517,0.30255825163207,-0.10680154033720389,-0.8080444931983948,-0.2979632318019867,-0.5082144737243652,-4.454057693481445,4.591212749481201,-2.7059738636016846,-0.27378833293914795,0.002217411994934082,0.331365168094635
336,-0.28076230804196944,0.13948055498801082,-0.6372323514678199,-0.27439719438552856,-0.13902872800827026,-0.9515131115913391,-4.018950462341309,5.863787651062012,-3.0919556617736816,0.023588508367538452,0.17609232664108276,0.3751733899116516
337,0.14011235135212063,-0.144678517613151,-0.8836274434517583,0.13819530606269836,0.14417430758476257,-0.9798550009727478,-0.8007831573486328,1.9047399759292603,-1.3058995008468628,0.03731130063533783,0.09006336331367493,-0.2090182900428772
338,0.19264111255585786,-0.15610022058978798,-0.9668195668106393,0.1891239732503891,0.15546703338623047,-0.9695680141448975,0.778177797794342,0.12965501844882965,-0.35321182012557983,0.010735645890235901,0.07477283477783203,-0.23273301124572754
339,0.15921140107378975,-0.034247099793047873,-1.0089217421770074,0.15844666957855225,0.03424040600657463,-0.986773669719696,1.4763448238372803,-0.46843934059143066,0.1762475073337555,0.060547471046447754,0.07409699261188507,0.014971911907196045
340,0.17428458027226396,0.07224873785121187,-1.0867036088322488,0.17295122146606445,-0.07218589633703232,-0.9822815656661987,2.02213716506958,1.0028517246246338,-1.0219205617904663,-0.05071306228637695,0.19932213425636292,0.22527778148651123
341,0.1731038306664937,0.15731446554278308,-1.0812069867344354,0.1701137125492096,-0.15666639804840088,-0.9728910326957703,0.10199861973524094,0.6366196274757385,0.44175809621810913,-0.1364070475101471,-0.003169417381286621,-0.011300861835479736
342,0.19295195982057514,0.2230409055983641,-1.0636532926301436,0.18700695037841797,-0.2211962193250656,-0.9571314454078674,0.3393910527229309,0.04275814816355705,0.1561385840177536,-0.12360668182373047,-0.019617989659309387,0.16115671396255493
343,0.1983673757845264,0.22104149182827926,-1.0649307916764943,0.19227422773838043,-0.21924589574337006,-0.9565364122390747,-0.3305962085723877,0.6175665259361267,0.004373546689748764,-0.07784855365753174,0.029899582266807556,0.03438675403594971
344,0.2744701464406255,0.21082439779827894,-1.0616370456130486,0.26503583788871765,-0.20926611125469208,-0.9412564635276794,0.3483548164367676,0.8784133791923523,0.4595138728618622,0.09388136863708496,0.06316320598125458,-0.016842901706695557
345,0.27782531535167426,0.29633047611951735,-1.0642519460076463,0.26231101155281067,-0.29201260209083557,-0.9197399616241455,0.16533957421779633,0.8562644720077515,0.2696404755115509,0.08081337809562683,0.03702297806739807,0.09443783760070801
346,0.3790301809649696,0.3273147858287672,-1.05957735525744,0.3503749668598175,-0.3215015232563019,-0.8797011971473694,0.15409192442893982,0.9446641206741333,0.15918545424938202,0.1257908046245575,0.01573064923286438,0.12854152917861938
347,0.5180086745698397,0.3275025230484152,-1.0030443478336357,0.4688331186771393,-0.3216792941093445,-0.8226286768913269,-0.37172240018844604,2.1100845336914062,0.4048497676849365,-0.010825276374816895,0.05721396207809448,0.1837126612663269
348,0.6011665153876535,0.27380407262051554,-0.9431872472112496,0.5445356369018555,-0.27039575576782227,-0.7939565777778625,-1.23585045337677,-0.49705371260643005,0.32046443223953247,0.04889392852783203,0.07064294815063477,0.09598904848098755
349,0.38835871972822344,0.25820372158135335,-0.7605701214371539,0.36611703038215637,-0.2553442418575287,-0.8948506116867065,-1.2127964496612549,-1.2107980251312256,1.0923123359680176,-0.00958019495010376,0.038913577795028687,0.05798232555389404
350,0.22477615134133355,0.23489686775574073,-0.696808179752792,0.21676728129386902,-0.23274268209934235,-0.9480732083320618,0.06189142167568207,-1.9100829362869263,0.8347724080085754,0.23063567280769348,-0.05639612674713135,-0.009293735027313232
351,0.030187234486105458,0.14678551492470102,-0.7934958858601969,0.029858075082302094,-0.14625898003578186,-0.9887956380844116,-1.3032022714614868,-1.841325283050537,-2.6622281074523926,-0.0646786317229271,0.11531415581703186,-0.002155900001525879
352,0.004889811642547561,0.1624809361700153,-0.7649506562706377,0.0048253885470330715,-0.16176696121692657,-0.9868171811103821,0.3706536293029785,1.7768440246582031,1.5533912181854248,-0.09871271252632141,-0.053824469447135925,0.2729499936103821
353,0.05428879965569116,0.12696494817477458,-0.6967052410264294,0.053825367242097855,-0.12662410736083984,-0.9904893636703491,-0.7823727130889893,-0.7479757070541382,1.1230825185775757,0.26251983642578125,-0.062462806701660156,-0.03015577793121338
354,0.06547688588573326,0.14555896156353354,-0.4861960064257891,0.0647381842136383,-0.14504550397396088,-0.9873048067092896,0.747624397277832,0.9676145315170288,2.2200586795806885,0.2427111566066742,0.058161959052085876,-0.22665393352508545
355,0.07510098098594518,0.04080243076500627,-0.42907090442558854,0.07496795803308487,-0.0407911092042923,-0.9963513016700745,-1.5101239681243896,-0.4748668074607849,-0.23363137245178223,0.02685394138097763,0.012821748852729797,0.17164427042007446
356,0.006372662926613679,-0.045821583607696614,-0.38918810239319734,0.006365931127220392,0.04580555111169815,-0.9989300966262817,-2.068441390991211,-0.5850433111190796,1.6006726026535034,-0.14866939187049866,-0.05941639095544815,-0.06767451763153076
357,0.2912562953044004,-0.08583701336436282,-0.214676272856693,0.2860985994338989,0.08573164790868759,-0.9543572068214417,1.035078525543213,3.7359962463378906,2.341764450073242,-0.2821160554885864,0.3271254301071167,-0.43596261739730835
358,0.5566511888109112,0.046450174821013115,-0.1326141635305191,0.5277760624885559,-0.0464334711432457,-0.8481134176254272,0.1632356196641922,1.5047599077224731,0.11255429685115814,-0.06075030565261841,0.1431894600391388,-0.18646299839019775
359,0.7128229969218632,0.025832118961858663,-0.14481362990411284,0.6537538170814514,-0.025829246267676353,-0.7562663555145264,0.3321024179458618,1.8877406120300293,-0.17389272153377533,0.049905240535736084,-0.1622963696718216,0.15017199516296387
360,0.8729570422632748,0.15526075899365224,-0.17481093964113115,0.7570155262947083,-0.15463772416114807,-0.634834349155426,0.8609796762466431,1.071320652961731,1.4331867694854736,-0.03757894039154053,-0.16567477583885193,0.042472898960113525
361,0.9427682838215737,0.22711810119043835,-0.1082240529766465,0.7884072661399841,-0.2251705676317215,-0.5724615454673767,0.28532925248146057,-0.08162277191877365,0.6889486908912659,0.23611360788345337,0.07810637354850769,-0.11723566055297852
362,0.930475560303746,0.2902353065216347,-0.12101041249979393,0.768365740776062,-0.28617769479751587,-0.572465181350708,0.5021290183067322,-0.3648480176925659,0.30892214179039,0.04486662149429321,0.02445894479751587,0.024659395217895508
363,0.8401367466373881,0.3572151164127559,-0.017518284602073934,0.6977224946022034,-0.3496665060520172,-0.6252333521842957,-0.6842984557151794,-0.9177608489990234,0.8956106305122375,0.02084439992904663,0.1800498068332672,0.07873976230621338
364,0.8093651598651492,0.3251515701793174,0.05731260608608597,0.685921311378479,-0.3194524049758911,-0.6538059115409851,-2.0530030727386475,1.4892542362213135,0.1598302125930786,0.024451613426208496,-0.1844843626022339,0.2220126986503601
365,0.8588937771360591,0.21750257106919024,0.20878598063703618,0.7392821311950684,-0.215791717171669,-0.6378838419914246,-1.4084644317626953,0.32803815603256226,0.5512731075286865,0.08385318517684937,0.05526924133300781,0.12694334983825684
366,0.8454591137600809,0.2160326774139504,0.26979883114008,0.730882465839386,-0.2143562138080597,-0.6479676961898804,0.10334505885839462,-0.44697803258895874,0.6613147258758545,-0.18348872661590576,-0.008238986134529114,-0.24519020318984985
367,0.84452022756607,0.22332456988328184,0.32740277023117703,0.7290858030319214,-0.2214728444814682,-0.647598385810852,-0.7993038296699524,0.7271410226821899,-0.08340951800346375,-0.018239855766296387,0.0131293386220932,0.005096554756164551
368,0.8562207285820834,0.17652274106457003,0.4065309188630025,0.7436332106590271,-0.17560741305351257,-0.6451137661933899,-0.7513599991798401,0.017660757526755333,0.00971977785229683,-0.021953463554382324,0.03257150948047638,0.04146081209182739
369,0.870544114768405,0.07189032315786234,0.43662855588437344,0.7627044916152954,-0.07182841747999191,-0.6427460312843323,-1.6068376302719116,1.253989338874817,-0.9432998895645142,-0.06366884708404541,0.283818781375885,0.13485729694366455
370,1.0340115612765797,-0.017434585304593596,0.558875764288342,0.8592267632484436,0.01743370294570923,-0.5112979412078857,-0.8040300011634827,3.4972658157348633,0.09528902173042297,0.1307787299156189,-0.01859337091445923,-0.30661892890930176
371,1.2293089778738793,-0.017933970385912802,0.569423579028831,0.9421060085296631,0.017933009192347527,-0.3348350524902344,-0.3212950527667999,-0.33628883957862854,0.05702931806445122,-0.03584086894989014,0.023219941183924675,-0.20946118235588074
372,1.1967235801364822,0.00010706671519350191,0.6087239324592827,0.9308468699455261,-0.00010706671309890226,-0.3654095530509949,-0.43759992718696594,-0.17822639644145966,0.4473445415496826,0.04872161149978638,0.0591738224029541,0.03456851840019226
373,1.1699172005498144,0.017845610435841538,0.6227930182756604,0.9205717444419861,-0.017844663932919502,-0.3901658058166504,0.3568970859050751,0.001116099301725626,0.036899689584970474,-0.02758157253265381,0.05751752853393555,0.14175266027450562
374,1.2006075328833523,0.017807066391393404,0.5564629015703315,0.9321113228797913,-0.017806125804781914,-0.3617340922355652,0.951516330242157,0.5556333065032959,-0.7029805183410645,-0.11402654647827148,0.06758031249046326,0.05945754051208496
375,1.3076830659156569,-0.007717042348900026,0.47362152139674907,0.9655560851097107,0.007716965861618519,-0.26008015871047974,0.15867888927459717,0.04062437266111374,0.09508376568555832,0.14577192068099976,-0.05942900478839874,-0.4211026728153229
376,1.2676618099341204,-0.024181294207398247,0.5176340705129708,0.9541263580322266,0.024178937077522278,-0.29842597246170044,-1.2936078310012817,-0.6579081416130066,-0.1635308414697647,-0.024164319038391113,-0.013116303831338882,0.04950937628746033
377,1.2729976680132253,-0.06337015699471374,0.5876680319340115,0.9540658593177795,0.06332775205373764,-0.2928275167942047,-0.26789313554763794,0.7376053333282471,-0.05105731636285782,0.02736419439315796,0.07528309524059296,0.013652682304382324
378,1.2975507416702794,-0.060190622346308044,0.5915091031225346,0.96115642786026,0.06015428528189659,-0.26936933398246765,0.30885428190231323,-0.13718722760677338,-0.11471155285835266,-0.01753765344619751,0.20333446562290192,-0.08422252535820007
379,1.2852177647043974,-0.06585649086987433,0.5722551533126087,0.9574188590049744,0.06580889970064163,-0.28110194206237793,0.0358332060277462,-0.28481388092041016,-0.11942129582166672,0.00786733627319336,0.03691326081752777,0.04483485221862793
380,1.2652655806806876,-0.050027137325995556,0.5455510902448193,0.952494204044342,0.05000627413392067,-0.3004230260848999,0.6271937489509583,0.12715935707092285,0.15718448162078857,-0.09845983982086182,0.10557232797145844,0.043541401624679565
381,1.281610330327483,-0.03538867331597952,0.46829082414053824,0.9578761458396912,0.03538128733634949,-0.2849935293197632,0.6148973703384399,0.18403229117393494,-0.15723787248134613,-0.016866683959960938,-0.007152531296014786,0.03734347224235535
382,1.2927779912028743,-0.03532819495040552,0.404534781124184,0.9610012769699097,0.03532084822654724,-0.27427938580513,0.5059327483177185,0.19184938073158264,-0.1563526839017868,0.07565045356750488,-0.04304179176688194,0.041979581117630005
383,1.3068283913902266,-0.03063294850854054,0.33097649198857215,0.9649094343185425,0.030628157779574394,-0.26079070568084717,0.8197522759437561,0.17549924552440643,-0.27478882670402527,0.02317345142364502,-0.04996104538440704,-0.05297577381134033
384,1.3150811178540296,-0.022166450707053184,0.24342987928354146,0.9672449827194214,0.022164635360240936,-0.25287529826164246,0.8780735731124878,-0.02773292548954487,-0.027251731604337692,-0.005391955375671387,-0.08937960118055344,0.01802724599838257
385,1.3168538574807684,-0.004296644014146588,0.16067461071587857,0.9679205417633057,0.004296630620956421,-0.25121960043907166,0.8343154191970825,-0.006274934858083725,-0.14716677367687225,-0.10180121660232544,-0.06504186987876892,0.016569942235946655
386,1.313071953696572,-0.009274773965279554,0.10770099726186556,0.9669309258460999,0.009274641051888466,-0.2548697888851166,0.1684725284576416,-0.03648056089878082,-0.08932763338088989,0.09169334173202515,-0.04720798879861832,-0.049054741859436035
387,1.3139383748201243,-0.007843884505202188,0.1268179924046806,0.9671632051467896,0.007843803614377975,-0.25403502583503723,-0.7030814290046692,-0.1708553582429886,0.18012772500514984,0.035415470600128174,-0.07566911727190018,0.05983641743659973
388,1.3164515149109757,-0.00020596777052673315,0.2004305942309385,0.9678282737731934,0.00020596776448655874,-0.2516113221645355,-0.7962653636932373,0.05018486827611923,0.3306393623352051,-0.027795374393463135,-0.13442228734493256,-0.04312744736671448
389,1.3129761731255958,0.0007776398998806975,0.3089418977844672,0.9669477343559265,-0.0007776397978886962,-0.25497326254844666,-1.2539384365081787,-0.05544925853610039,0.3194809556007385,0.03541731834411621,-0.11767634749412537,0.02371111512184143
390,1.3053965017969513,0.006374929231227874,0.43570313441855535,0.9649680852890015,-0.006374886259436607,-0.26228976249694824,-1.0796931982040405,-0.03010089509189129,0.3843691647052765,-0.050829291343688965,-0.03045983612537384,-0.016595125198364258
391,1.3006567222456489,0.014433987267457836,0.5433372204740097,0.9636333584785461,-0.014433486387133598,-0.2668381929397583,-0.8721343874931335,-0.08331099152565002,0.35268279910087585,0.028203189373016357,-0.09976330399513245,-0.0433272123336792
392,1.2844542333890192,0.019097736947093817,0.6354392183075923,0.9591086506843567,-0.019096575677394867,-0.2823936641216278,-1.2268251180648804,-0.35925301909446716,0.29835331439971924,0.13198643922805786,0.0036546867340803146,0.05113145709037781
393,1.2589338044565856,0.038881486335210456,0.7430949365485039,0.951044499874115,-0.03887169063091278,-0.3065999746322632,-0.7693861722946167,-0.162028968334198,0.47895127534866333,-0.12960278987884521,0.12343588471412659,0.048482298851013184
394,1.250279001557897,0.046044682455143336,0.8137189430602526,0.9480666518211365,-0.046028412878513336,-0.3147236406803131,-0.6207119822502136,-0.05390792712569237,0.154607892036438,-0.02080535888671875,-0.014884646981954575,0.07938739657402039
395,1.2496062501228928,0.06123875473837643,0.8873870557482363,0.9470818638801575,-0.06120048463344574,-0.31510424613952637,-0.820815920829773,0.0939386636018753,0.6313257813453674,0.0831458568572998,-0.08041635155677795,0.09557604789733887
396,1.2530445221622684,0.08656362805013179,1.0218889010098227,0.9463834166526794,-0.0864555612206459,-0.3112618923187256,-1.4183604717254639,0.1759394407272339,0.6960890293121338,0.030774176120758057,0.09918138384819031,0.048108816146850586
397,1.2364529920482017,0.10915155449080396,1.1555757994299676,0.9390044212341309,-0.10893494635820389,-0.3261960744857788,-0.851601243019104,-0.03440791368484497,0.5208791494369507,0.07346200942993164,0.1963525414466858,0.011758208274841309
398,1.2616618526163237,0.14182091870247834,1.204912180738041,0.9430333971977234,-0.14134597778320312,-0.30117979645729065,0.05873292684555054,0.6429542303085327,0.407223641872406,-0.059992074966430664,0.22287367284297943,0.016435593366622925
399,1.3186732847907585,0.1523727417365893,1.1999974801130442,0.9571650624275208,-0.1517838090658188,-0.24657012522220612,0.2105116844177246,0.3951147496700287,-0.18634453415870667,-0.022716820240020752,0.11404883861541748,-0.023464679718017578
400,1.3489705283041304,0.14992206000458264,1.172172481123163,0.9645549654960632,-0.14936107397079468,-0.21754314005374908,0.33632946014404297,0.10775508731603622,-0.07734566926956177,0.09217715263366699,0.13996165990829468,-0.05870199203491211
401,1.3466001805135122,0.14596711266090664,1.1065175721073957,0.964604914188385,-0.14544932544231415,-0.21995843946933746,1.0686609745025635,-0.4540945291519165,-0.38535258173942566,0.036890387535095215,0.24635572731494904,-0.05897222459316254
402,1.3295420658768669,0.12639566073597402,0.9498520671178837,0.9632927775382996,-0.1260593831539154,-0.2370148003101349,1.9305275678634644,-0.2601850628852844,-0.7665814757347107,-0.06639647483825684,0.2724674940109253,0.023727431893348694
403,1.3236721912110316,0.06577069039869267,0.7075506625093528,0.967523455619812,-0.06572328507900238,-0.2440875768661499,2.219329833984375,-0.31474587321281433,-1.3748483657836914,0.08714872598648071,0.1763189733028412,0.1528552919626236
404,1.3110843101811467,-0.007888315680403511,0.4311377671117583,0.9664338231086731,0.007888234220445156,-0.2567942440509796,2.78098201751709,0.06052135303616524,-1.3994405269622803,0.09074079990386963,0.07492122054100037,0.1845591962337494
405,1.312779799464426,-0.06620216180685506,0.11927065854759247,0.9647800326347351,0.06615381687879562,-0.254604309797287,2.7780730724334717,0.2792251408100128,-1.1795305013656616,0.07535070180892944,-0.00815514475107193,0.2318839728832245
406,1.3230489169114363,-0.10379108677336107,-0.17789596132210486,0.9642502069473267,0.10360483825206757,-0.24390114843845367,2.642763376235962,0.34064996242523193,-1.0418028831481934,0.05398416519165039,-0.014020472764968872,0.1499069631099701
407,1.35840992709493,-0.12627173002680553,-0.44162941194935407,0.9697479009628296,0.12593643367290497,-0.20911501348018646,2.3207859992980957,0.8601287007331848,-0.6610530614852905,-0.04112851619720459,-0.06932632625102997,0.0011529326438903809
408,1.3725808106697568,-0.1612632494693749,-0.618567614240223,0.9676989316940308,0.16056519746780396,-0.19436512887477875,0.9215096831321716,0.018826661631464958,-0.6495369672775269,0.02003312110900879,-0.18613892793655396,0.011793702840805054
409,1.3744569001805442,-0.18088771849106425,-0.6406910860548114,0.9647851586341858,0.17990288138389587,-0.19189755618572235,-0.43264877796173096,0.0740770548582077,0.15199433267116547,0.001614987850189209,-0.2978075444698334,-0.049954235553741455
410,1.369686440820913,-0.16377515756863514,-0.5143526683059175,0.9667339324951172,0.1630440056324005,-0.197083979845047,-1.6307357549667358,-0.4689567983150482,0.6784148216247559,0.10591310262680054,-0.2322578728199005,-0.1077866405248642
411,1.3108857921873607,-0.11498740750531342,-0.2946348989977081,0.9600309133529663,0.11473418027162552,-0.2552969455718994,-1.8732128143310547,-0.8234226703643799,0.8898382782936096,0.006689548492431641,-0.03418304771184921,0.029711037874221802
412,1.263436365068528,-0.09841597737964965,-0.1137172010647003,0.9485234618186951,0.09825718402862549,-0.3010793924331665,-1.7396528720855713,-0.6632171273231506,0.43279600143432617,0.07068735361099243,-0.007604710757732391,0.211220383644104
413,1.2527507799040623,-0.08983063748948834,0.07311040743926844,0.946018636226654,0.08970987051725388,-0.31144988536834717,-1.3967771530151367,0.20965394377708435,0.8889434337615967,0.046184241771698,-0.03140603005886078,0.14438137412071228
414,1.2948286607327466,-0.06089062385654302,0.22642735039331494,0.960378885269165,0.060853004455566406,-0.2719731628894806,-1.4519662857055664,0.17281652987003326,0.4877730906009674,-0.03546738624572754,0.019637107849121094,-0.0034479498863220215
415,1.3151811416769934,-0.052075700528558026,0.35018336912163517,0.9661962985992432,0.05205216631293297,-0.2524978816509247,-1.0114940404891968,0.1680549532175064,0.3878638446331024,-0.02384406328201294,-0.027668628841638565,-0.05463096499443054
416,1.3322640558415262,-0.04721537989400452,0.4427289972038827,0.9706028699874878,0.04719783738255501,-0.23601338267326355,-0.6808328032493591,0.28012678027153015,0.19239911437034607,0.02117258310317993,-0.0638299286365509,-0.16684913635253906
417,1.3296091715878786,-0.022772755586333838,0.5177835898677562,0.970803439617157,0.02277078665792942,-0.23879368603229523,-1.069095253944397,-0.24783311784267426,0.39780861139297485,-0.03814035654067993,-0.07115639746189117,0.02840551733970642
418,1.3048374479729252,-0.02893316216933995,0.649222374143026,0.9644370675086975,0.028929125517606735,-0.26272454857826233,-1.4792048931121826,-0.3745882213115692,0.21561934053897858,0.07473224401473999,-0.07133328914642334,0.024779021739959717
419,1.2974876170898604,-0.004977577970681656,0.7810892078938063,0.9628711938858032,0.0049775573424994946,-0.26991546154022217,-1.0033847093582153,0.14066216349601746,0.7719371914863586,-0.024623513221740723,-0.023806899785995483,0.08320891857147217
420,1.285743175573809,0.016776270882138036,0.9031885589658513,0.9595116972923279,-0.016775483265519142,-0.2811689078807831,-1.2158178091049194,-0.43190279603004456,0.3345392346382141,0.08602052927017212,0.10518491268157959,0.04802989959716797
421,1.2768033687045675,0.037319047775117076,0.9793699910711124,0.9564279913902283,-0.03731038421392441,-0.28957438468933105,-0.22188740968704224,0.23808585107326508,0.41855406761169434,0.003700733184814453,0.11058309674263,0.04717329144477844
422,1.283388131843991,0.0438419575803799,1.012721474820851,0.9580602645874023,-0.04382791370153427,-0.28319528698921204,-0.24560320377349854,-0.07135382294654846,-0.1381111890077591,0.02333921194076538,0.23091593384742737,-0.05638900399208069
423,1.2873714626332704,0.027091754674430747,0.9343014402709451,0.9597510099411011,-0.02708844095468521,-0.2795428931713104,1.7347016334533691,0.2741720676422119,-0.6465306878089905,-0.035938143730163574,0.286457359790802,-0.03977781534194946
424,1.318790976814693,-0.005787172013176815,0.7010533029317272,0.9683980941772461,0.005787139758467674,-0.24934227764606476,2.0718555450439453,0.03539431095123291,-1.161090612411499,-0.05396944284439087,0.2664906978607178,0.15366972982883453
425,1.3188384223537395,-0.100941082278267,0.4947913385690893,0.9634966850280762,0.10076975077390671,-0.24803152680397034,1.4901347160339355,0.18329258263111115,-1.5274204015731812,0.04425477981567383,0.051390886306762695,0.16535937786102295
426,1.3178159546122346,-0.19741425630739867,0.3487979773128795,0.94936603307724,0.19613446295261383,-0.24542920291423798,1.1429156064987183,0.36588412523269653,-0.9605793952941895,0.10193401575088501,-0.12283122539520264,0.03566664457321167
427,1.3293631115943432,-0.23596595540266188,0.20415068253778856,0.9440889954566956,0.23378227651119232,-0.23246896266937256,1.2407728433609009,0.4168621897697449,-0.5242252945899963,0.05092138051986694,-0.03592158854007721,0.010011091828346252
428,1.3387451753928006,-0.2500435421291598,0.057048395500994824,0.9429318904876709,0.24744614958763123,-0.22282235324382782,1.3860552310943604,0.5057051181793213,-0.42868754267692566,-0.0312345027923584,0.004232302308082581,0.05766125023365021
429,1.3529422655018524,-0.26357995814895324,-0.0571327534155607,0.9426432847976685,0.2605385184288025,-0.20867034792900085,0.7881446480751038,0.3611314594745636,-0.4232584238052368,-0.020157933235168457,0.03380349278450012,0.05602140724658966
430,1.353404469795683,-0.2811673421059458,-0.11639987018928957,0.9381197690963745,0.27747735381126404,-0.20721419155597687,0.5250042080879211,0.080531544983387,-0.1700047254562378,0.06217014789581299,-0.03675466775894165,-0.019607722759246826
431,1.338683726768976,-0.26593263030254755,-0.15276423915125395,0.9389731884002686,0.26280921697616577,-0.2219478040933609,0.4950929880142212,-0.04891909286379814,0.2660173773765564,0.050986528396606445,-0.03063148260116577,-0.018835902214050293
432,1.3202748620819154,-0.2090175442501584,-0.17692077038500062,0.9476979374885559,0.2074989229440689,-0.2425134927034378,0.17835134267807007,-0.12093020230531693,0.655678927898407,-0.040105223655700684,0.0027824342250823975,0.0715845376253128
433,1.3013846874689592,-0.1488640461136801,-0.1356116948382869,0.9532668590545654,0.14831483364105225,-0.2632206380367279,-0.5498710870742798,-0.38213446736335754,0.5911383032798767,-0.04774928092956543,4.6372413635253906e-05,0.06774026155471802
434,1.2891254132686707,-0.10052161120436753,-0.06959675148121983,0.955743134021759,0.10035240650177002,-0.27655792236328125,-0.14120596647262573,0.09294531494379044,0.37468045949935913,0.017630159854888916,0.04266820847988129,-0.028999298810958862
435,1.280239217560328,-0.10995962855441971,-0.015264820178371776,0.9522980451583862,0.10973817110061646,-0.28475576639175415,-0.4729370176792145,-0.3376449942588806,0.16235856711864471,0.1647520661354065,-0.04496461898088455,-0.26330938935279846
436,1.3411654038291003,-0.041000681174263524,-0.13839420738943012,0.9729321002960205,0.04098919406533241,-0.22742685675621033,1.4647151231765747,0.49660253524780273,0.6753392219543457,-0.231980562210083,0.03977557271718979,0.011316657066345215
437,1.330106305042255,-0.027158421483804936,-0.1637780109918198,0.9708155989646912,0.027155082672834396,-0.2382849156856537,-0.7248334288597107,-0.37850117683410645,-0.4216119647026062,-0.07443803548812866,-0.0476476326584816,0.08977115154266357
438,1.2882890361827926,-0.09423367255976672,-0.051983204684005635,0.9560986161231995,0.09409426897764206,-0.2775276005268097,-1.092340111732483,-0.30379578471183777,-0.027549369260668755,0.17411983013153076,-0.19426822662353516,-0.18923872709274292
439,1.325241276038067,-0.06535322404359899,-0.029186316016779616,0.9679317474365234,0.06530671566724777,-0.24257579445838928,0.1736501157283783,0.46837469935417175,0.3672158122062683,-0.12451756000518799,-0.05880647897720337,-0.08899764716625214
440,1.319089692771719,-0.06721138141873953,0.02016520328211998,0.9663020968437195,0.06716079264879227,-0.24849484860897064,-0.7538703083992004,-0.4929007589817047,-0.0488329753279686,-0.009911715984344482,-0.05101699382066727,-0.16117310523986816
441,1.289321909077533,-0.07118419993230822,0.0337041339005146,0.9582139849662781,0.07112409919500351,-0.2770688533782959,0.46020951867103577,-0.09081488102674484,-0.05187457799911499,0.06377381086349487,0.036374062299728394,-0.1510164439678192
442,1.2636825924555732,-0.07903749863624719,0.01980100454323621,0.9502343535423279,0.07895523309707642,-0.301364928483963,0.1793050616979599,0.1931665688753128,0.39823389053344727,-0.01097959280014038,-0.037375032901763916,-0.0194663405418396
443,1.2654847621154688,-0.08217781605116119,0.020443816804985308,0.9505347609519958,0.08208535611629486,-0.29957595467567444,-0.6989786624908447,-0.47942864894866943,-0.34878864884376526,-0.07478708028793335,0.03790976107120514,0.006485104560852051
444,1.229744278467356,-0.12997569499982384,0.044169464294178486,0.9344541430473328,0.12961004674434662,-0.33165740966796875,0.0275534950196743,-0.18622861802577972,-0.2684008479118347,0.007989645004272461,-0.12048530578613281,0.021461516618728638
445,1.2282094905745289,-0.14273012848260835,0.05520521480834137,0.9323111176490784,0.14224600791931152,-0.3325088322162628,-0.4178498387336731,-0.006921726278960705,0.06851554661989212,0.05885404348373413,-0.10295462608337402,0.09088587760925293
446,1.2433459167992698,-0.12833253895878993,0.11914001233507952,0.9390791058540344,0.127980574965477,-0.31898510456085205,-0.6128977537155151,0.26728057861328125,0.45716848969459534,0.005272030830383301,-0.006490081548690796,0.13652050495147705
447,1.2766061779770213,-0.11614767642173482,0.21508404670465436,0.9505892395973206,0.11588671058416367,-0.28801125288009644,-1.2000924348831177,0.19924616813659668,0.38872021436691284,0.028170526027679443,0.06523512303829193,0.06672829389572144
448,1.3253323874307923,-0.09981399624539058,0.31866265214070866,0.9651966691017151,0.09964834153652191,-0.24179688096046448,-0.46916061639785767,0.598301112651825,0.4062219560146332,-0.06315809488296509,0.048255108296871185,-0.12272036075592041
449,1.3622734836613972,-0.07653540104354245,0.3865014947858104,0.9754737019538879,0.07646070420742035,-0.20640893280506134,-0.7606819272041321,0.03445718437433243,0.4246509075164795,-0.00757831335067749,0.10289109498262405,-0.12311986088752747
450,1.3579880112034295,-0.05337629448725365,0.45613950080888754,0.9760497212409973,0.05335095152258873,-0.21090492606163025,-0.6531654596328735,-0.16040898859500885,0.24034138023853302,-0.02971482276916504,0.15747973322868347,-0.04348963499069214
451,1.3533248371617068,-0.044615520680130534,0.4981745442769352,0.9754743576049805,0.0446007214486599,-0.2155466228723526,0.009522675536572933,0.06324513256549835,0.1656530201435089,-0.038889944553375244,0.1071784496307373,-0.08654682338237762
452,1.3659044708510448,-0.02850993705251422,0.5122513248884428,0.9786851406097412,0.028506074100732803,-0.2033786028623581,-0.4964626431465149,0.20986561477184296,0.3064079284667969,-0.04904341697692871,0.0414859801530838,-0.01880466938018799
453,1.3610250763251652,-0.04678415065477955,0.587347960837732,0.9770084619522095,0.046767085790634155,-0.20800833404064178,-1.3838225603103638,-0.43162620067596436,0.09920497238636017,0.2486843466758728,-0.10732921957969666,-0.10298103094100952
454,1.3363904057452165,-0.010885812636034248,0.6934340839096984,0.9725948572158813,0.010885597206652164,-0.23225143551826477,-1.0973832607269287,-0.1661670207977295,0.7386276125907898,-0.09855622053146362,-0.04453122615814209,0.06527449190616608
455,1.3036990074056958,-0.0038337301201185696,0.8210875948724375,0.9645340442657471,0.0038337206933647394,-0.26393088698387146,-1.5627059936523438,-0.5912231206893921,0.1377069354057312,-0.00887596607208252,0.004390776623040438,0.11674460768699646
456,1.284796735986977,-0.013975468181864402,0.941041876519148,0.9592863917350769,0.013975013047456741,-0.2820890247821808,-0.8062810897827148,0.1879831701517105,0.31563442945480347,-0.02900385856628418,-0.11097514629364014,0.1705319881439209
457,1.2921134034946156,-0.013837338044587356,1.0741693215878076,0.9613265991210938,0.013836896046996117,-0.27506330609321594,-1.5035916566848755,-0.01736677624285221,0.5292006731033325,0.15499114990234375,-0.07911399006843567,0.038719892501831055
458,1.320818113665052,0.03179656920022873,1.1807469411298008,0.9684280753135681,-0.03179121017456055,-0.24725781381130219,-0.44669249653816223,0.5465075969696045,0.785595715045929,-0.058866918087005615,-0.037346359342336655,-0.021586820483207703
459,1.340102549562948,0.06752967562891507,1.2814848416579867,0.9712890982627869,-0.06747835874557495,-0.22813181579113007,-1.3608744144439697,-0.09362570196390152,0.45574358105659485,0.01062917709350586,0.003040492534637451,-0.02641528844833374
460,1.3267048521798754,0.08690013306448066,1.3997828155832106,0.9666957855224609,-0.08679080009460449,-0.24076290428638458,-0.9952577352523804,-0.14479856193065643,0.48909488320350647,0.06952869892120361,-0.005158700048923492,-0.027578145265579224
461,1.2862585521314753,0.11580862083287363,1.5053560180998915,0.9533624053001404,-0.11554992944002151,-0.2788335084915161,-0.4135951101779938,-0.2030588686466217,0.460539311170578,0.04187673330307007,0.10293091833591461,-0.0891474187374115
462,1.2724163687901089,0.14540649671106542,1.5085990986930573,0.9457272887229919,-0.14489464461803436,-0.2908698320388794,0.3003263473510742,-0.07121600210666656,0.028685186058282852,-0.1167784333229065,0.13871484994888306,0.05136793851852417
463,1.2701978591643495,0.1337338631847155,1.489310720832188,0.9466307759284973,-0.13333559036254883,-0.2934480607509613,-0.03228924423456192,0.055783312767744064,-0.3373074233531952,-0.06702262163162231,0.05766722559928894,0.1302858591079712
464,1.2762514280241544,0.09004771603111635,1.5078477952890894,0.9530572295188904,-0.08992607146501541,-0.2891281545162201,-0.49075818061828613,0.1699061393737793,-0.2711979150772095,0.057700157165527344,-0.06862800568342209,0.03125467896461487
465,1.2926316751511284,0.061184790541606644,1.5514417822192375,0.9597617387771606,-0.06114662438631058,-0.27407750487327576,-0.5611326098442078,0.08143123984336853,0.04388779401779175,0.07748490571975708,-0.11425316333770752,-0.08773890137672424
466,1.2917514161079844,0.05934371837681584,1.586977237947799,0.9596267342567444,-0.059308893978595734,-0.27495276927948,-0.27094346284866333,-0.1902153640985489,0.12236250936985016,0.012220799922943115,-0.03599753603339195,-0.11477193236351013
467,1.2678676846249282,0.05777177527905349,1.5876772929182008,0.9528745412826538,-0.05773964524269104,-0.2978190779685974,0.138808012008667,-0.2983241081237793,-0.12170224636793137,-0.033257901668548584,0.02992287650704384,-0.0602283775806427
468,1.2350362694708368,0.03679092061928015,1.5588575459647065,0.94352126121521,-0.03678262233734131,-0.32926392555236816,0.13373306393623352,-0.37976399064064026,-0.4254624843597412,-0.04677748680114746,0.02178323268890381,0.003031015396118164
469,1.2056119664733047,-0.00960975693332104,1.5247535043761886,0.9340148568153381,0.00960960891097784,-0.357105016708374,0.5222539305686951,0.12176906317472458,-0.6597902178764343,0.006048619747161865,-0.08208885788917542,-0.13349556922912598
470,1.1864730945343323,-0.022694445071927468,1.456903395318353,0.9268136620521545,0.022692497819662094,-0.3748352825641632,0.09022922068834305,-0.6571128964424133,-0.1647595763206482,0.026219725608825684,0.009350955486297607,0.00561833381652832
471,1.0921533213302865,-0.04629266438668385,1.4735249838684632,0.8866698741912842,0.04627613350749016,-0.46008169651031494,-0.3635379672050476,-0.798389732837677,-0.09286431968212128,0.08279728889465332,-0.027782469987869263,0.12310659885406494
472,1.0507945309759317,-0.06638356915736748,1.4979240451990232,0.865906834602356,0.06633482128381729,-0.49578729271888733,-0.30660951137542725,-0.21085940301418304,0.14423304796218872,0.09184157848358154,-0.033803075551986694,0.13055288791656494
473,1.0630414147305125,-0.042062969182392926,1.5276998596384823,0.8730653524398804,0.0420505665242672,-0.4857865273952484,-0.1326017528772354,0.3251177668571472,0.3213827908039093,-0.08145469427108765,0.1141078770160675,0.1735459864139557
474,1.0726735452801355,-0.061263601485028706,1.5712994740353476,0.8768329620361328,0.0612252876162529,-0.4768809676170349,-0.6890559196472168,-0.07883255183696747,-0.11221225559711456,0.12223625183105469,0.189522385597229,0.08437913656234741
475,1.1170506538906566,-0.060541952461531386,1.583925064596068,0.8971648812294006,0.0605049766600132,-0.4375321865081787,0.4083060920238495,0.8035980463027954,0.05513806641101837,-0.08684688806533813,0.1567344069480896,0.03338789939880371
476,1.2289568038037342,-0.06107648767140944,1.5044689065111359,0.9403829574584961,0.06103852391242981,-0.3345957100391388,1.0928537845611572,1.120318055152893,-0.4175284802913666,0.011689186096191406,0.0979885458946228,-0.0960226058959961
477,1.2603634691792296,-0.07622928903544023,1.4660543958555488,0.9494361877441406,0.07615548372268677,-0.30458372831344604,-0.17565134167671204,-0.40286391973495483,-0.3292553424835205,0.0086478590965271,0.09930532425642014,-0.08648374676704407
478,1.2100580772378462,-0.11224075023458689,1.4827392545898939,0.9297491312026978,0.11200523376464844,-0.3507440686225891,-0.11505044996738434,-0.2126319855451584,-0.41255828738212585,-0.012604355812072754,0.10067176818847656,0.006246387958526611
479,1.2173875814730124,-0.1432478558993924,1.4132581333511023,0.9285889863967896,0.14275845885276794,-0.3425530195236206,0.7928816080093384,0.35978075861930847,-0.5472502708435059,-0.004181027412414551,0.08232393860816956,0.061638712882995605
480,1.2290874722321874,-0.16782948043692078,1.3232706883694216,0.9289454221725464,0.16704271733760834,-0.3303894102573395,0.8743417263031006,0.24750548601150513,-0.4075486361980438,0.028116345405578613,0.06571486592292786,0.04497373104095459
481,1.2384957781571542,-0.16766462496494114,1.199737944969979,0.9320387244224548,0.16688017547130585,-0.3216440975666046,1.3421448469161987,0.2821391224861145,-0.2996504008769989,0.03689444065093994,0.15117400884628296,0.014866113662719727
482,1.2528368561073593,-0.14930005204620644,1.0136913647052475,0.9393083453178406,0.14874601364135742,-0.3091511130332947,1.8424266576766968,0.24846960604190826,-0.6489195227622986,-0.10039544105529785,0.18386505544185638,0.032890766859054565
483,1.23728873909849,-0.17252898473183867,0.8290789593070919,0.9308716058731079,0.17167434096336365,-0.32249927520751953,1.5422039031982422,0.12639430165290833,-0.7552144527435303,0.001455545425415039,-0.012845590710639954,0.05107596516609192
484,1.2328536917759274,-0.17244161751788253,0.663046607029815,0.9294464588165283,0.1715882569551468,-0.3266295790672302,1.3820865154266357,0.24326151609420776,-0.35444289445877075,0.04090571403503418,-0.06679090857505798,0.049484193325042725
485,1.2331232329214448,-0.1563000064337028,0.5618154834281887,0.9320265650749207,0.1556643843650818,-0.327254056930542,0.8192845582962036,0.1806287169456482,0.017011169344186783,0.050959885120391846,-0.08883090317249298,-0.013383150100708008
486,1.2347052637805715,-0.12080395427732284,0.49641818021092593,0.9371708035469055,0.12051033973693848,-0.32739579677581787,0.5559228658676147,0.01745595410466194,0.17356650531291962,0.0029078125953674316,0.00426076352596283,-0.02515849471092224
487,1.2325542821777624,-0.0879019932396826,0.4604383307550424,0.9396973848342896,0.08778883516788483,-0.33054810762405396,0.3730587065219879,-0.07283496856689453,0.18807998299598694,0.0016783475875854492,0.10932418704032898,-0.046328723430633545
488,1.2182991162800456,-0.0719128585684473,0.4270517734446775,0.9360878467559814,0.07185089588165283,-0.34435024857521057,0.3024374544620514,-0.12701299786567688,-0.10864555835723877,-0.10500264167785645,0.07834136486053467,0.06364953517913818
